Time,Accel_X,Accel_Y,Accel_Z,Gyro_X,Gyro_Y,Gyro_Z
11756619,2267,2633,-2394,-4,9,-37
11759655,2228,2644,-2344,-10,6,-37
11762827,2243,2648,-2367,-5,13,-38
11765901,2213,2675,-2331,-12,7,-36
11769024,2251,2636,-2363,-8,17,-30
11772148,2240,2649,-2326,-17,13,-27
11775357,2215,2662,-2318,-11,12,-26
11778567,2252,2677,-2339,-17,17,-24
11781777,2225,2662,-2336,-11,12,-17
11784986,2245,2657,-2352,-16,23,-14
11788238,2243,2668,-2317,-13,11,-14
11791406,2245,2663,-2335,-20,24,-9
11794529,2235,2665,-2316,-17,13,-8
11797652,2231,2682,-2348,-19,28,-2
11800775,2231,2665,-2341,-18,15,0
11803811,2243,2672,-2309,-20,29,5
11806847,2252,2642,-2300,-20,19,8
11809884,2264,2643,-2313,-17,21,14
11813031,2250,2654,-2334,-26,21,13
11816130,2239,2665,-2322,-20,25,16
11819253,2250,2672,-2319,-25,22,22
11822376,2228,2660,-2351,-18,24,23
11825499,2265,2659,-2324,-25,22,24
11828622,2245,2675,-2313,-14,21,21
11831745,2285,2674,-2332,-24,31,24
11834868,2261,2644,-2332,-17,15,24
11838015,2274,2648,-2303,-21,28,25
11841114,2253,2650,-2340,-13,21,26
11844237,2266,2662,-2292,-19,25,21
11847360,2268,2656,-2311,-10,19,22
11850483,2261,2642,-2326,-17,21,18
11853606,2262,2661,-2330,-13,9,12
11856642,2274,2651,-2321,-13,29,8
11859678,2251,2672,-2332,-8,11,4
11862676,2251,2644,-2336,-10,20,3
11865664,2259,2647,-2329,-5,10,0
11868613,2270,2643,-2317,-6,21,-7
11871650,2290,2663,-2313,-4,4,-5
11874599,2250,2651,-2348,-6,20,-15
11877722,2265,2674,-2338,-1,2,-18
11880758,2265,2643,-2362,-3,15,-22
11883881,2244,2639,-2343,3,3,-32
11886854,2241,2649,-2360,0,12,-34
11889902,2244,2643,-2342,5,3,-38
11892817,2263,2634,-2363,-1,9,-38
11895853,2281,2668,-2301,2,0,-43
11898802,2242,2646,-2307,2,14,-45
11901839,2234,2634,-2349,3,-2,-45
11904875,2240,2658,-2347,-1,14,-47
11907998,2256,2652,-2359,5,-2,-47
11911038,2252,2648,-2367,-2,12,-47
11914182,2228,2648,-2371,1,-2,-52
11917193,2269,2688,-2354,2,15,-42
11920230,2244,2654,-2334,0,2,-47
11923179,2247,2647,-2367,2,13,-46
11926215,2237,2667,-2341,-3,-1,-41
11929339,2215,2675,-2359,-2,18,-38
11932461,2245,2637,-2338,-9,-2,-37
11935584,2224,2662,-2320,-6,20,-35
11938732,2255,2651,-2336,-8,4,-33
11941744,2223,2672,-2360,-10,20,-27
11944953,2236,2664,-2326,-14,15,-24
11948163,2250,2681,-2325,-11,20,-16
11951373,2243,2670,-2362,-18,12,-18
11954583,2238,2660,-2354,-13,18,-13
11957792,2247,2673,-2329,-19,12,-7
11960919,2241,2667,-2293,-18,18,-4
11964088,2251,2661,-2316,-23,25,2
11967075,2209,2692,-2323,-18,21,9
11970111,2229,2661,-2321,-25,22,11
11973234,2240,2641,-2318,-19,21,12
11976357,2210,2646,-2325,-25,19,16
11979480,2256,2664,-2316,-20,24,22
11982603,2262,2682,-2335,-26,26,22
11985726,2254,2688,-2311,-24,17,27
11988872,2266,2646,-2302,-25,27,25
11992007,2250,2685,-2358,-18,21,29
11995095,2274,2671,-2287,-25,29,23
11998218,2257,2665,-2299,-20,17,25
12001341,2284,2664,-2301,-23,26,25
12004464,2257,2652,-2302,-15,20,22
12007587,2277,2660,-2350,-17,29,21
12010710,2252,2628,-2306,-14,19,17
12013858,2271,2647,-2310,-16,25,18
12016956,2250,2668,-2295,-14,13,13
12020079,2261,2649,-2297,-17,28,13
12023202,2288,2644,-2313,-11,8,6
12026151,2279,2639,-2342,-12,24,5
12029188,2268,2650,-2320,-9,10,2
12032137,2260,2643,-2350,-8,25,-2
12035173,2309,2644,-2317,-2,9,-6
12038147,2271,2670,-2327,-8,19,-9
12041159,2246,2659,-2300,-2,7,-14
12044195,2258,2635,-2346,-6,17,-15
12047318,2258,2629,-2318,-1,1,-21
12050355,2263,2624,-2333,1,18,-26
12053391,2262,2649,-2338,1,3,-25
12056340,2253,2658,-2316,2,12,-28
12059377,2259,2647,-2339,5,0,-33
12062429,2243,2636,-2334,3,15,-34
12065362,2268,2633,-2331,2,0,-36
12068312,2262,2654,-2332,5,13,-39
12071348,2263,2654,-2341,3,-2,-43
12074384,2256,2651,-2330,3,14,-38
12077421,2244,2668,-2339,0,-1,-44
12080457,2224,2658,-2370,1,16,-43
12083493,2245,2662,-2380,-3,-2,-42
12086639,2249,2647,-2326,-2,16,-43
12089739,2256,2665,-2321,-4,1,-44
12092814,2258,2667,-2375,-3,18,-43
12095898,2266,2641,-2325,-6,6,-42
12098935,2231,2650,-2354,-5,16,-38
12102058,2236,2650,-2311,-8,4,-38
12105094,2244,2673,-2332,-9,14,-32
12108217,2224,2657,-2342,-13,4,-30
12111365,2246,2652,-2333,-6,16,-24
12114463,2229,2659,-2329,-15,4,-25
12117586,2252,2666,-2329,-9,19,-22
12120709,2239,2658,-2340,-16,7,-17
12123832,2258,2669,-2370,-16,13,-11
12127042,2244,2689,-2325,-19,22,-13
12130251,2208,2681,-2298,-16,14,-6
12133374,2216,2664,-2284,-22,22,-5
12136522,2225,2666,-2305,-17,17,-1
12139620,2253,2655,-2315,-16,28,4
12142657,2218,2652,-2341,-18,14,3
12145693,2212,2648,-2352,-17,29,9
12148729,2243,2670,-2326,-20,13,8
12151765,2240,2664,-2343,-20,33,12
12154888,2225,2666,-2316,-21,13,13
12158011,2259,2667,-2304,-19,27,16
12161138,2260,2647,-2332,-21,18,15
12164306,2250,2651,-2324,-18,29,20
12167380,2224,2679,-2336,-22,18,14
12170503,2263,2678,-2318,-18,21,20
12173626,2269,2651,-2325,-20,22,16
12176749,2248,2700,-2319,-14,23,20
12179872,2262,2671,-2314,-18,23,19
12182995,2254,2658,-2318,-11,20,17
12186122,2244,2668,-2280,-15,21,13
12189265,2250,2668,-2309,-9,18,15
12192278,2273,2654,-2337,-14,27,12
12195436,2257,2651,-2329,-6,11,7
12198350,2274,2649,-2329,-15,21,8
12201386,2273,2649,-2303,-8,15,3
12204336,2252,2669,-2333,-9,19,-2
12207372,2274,2635,-2357,-6,11,-2
12210408,2271,2642,-2311,-7,18,-6
12213469,2271,2652,-2340,-3,9,-8
12216394,2257,2652,-2343,-7,14,-11
12219517,2270,2647,-2330,-2,9,-14
12222553,2284,2656,-2338,-7,14,-19
12225676,2290,2652,-2353,2,9,-19
12228626,2234,2614,-2324,-2,14,-23
12231749,2260,2629,-2337,4,5,-24
12234698,2266,2650,-2350,-3,11,-32
12237846,2269,2619,-2323,1,5,-26
12240771,2256,2651,-2353,-6,7,-34
12243807,2271,2631,-2343,2,7,-30
12246757,2252,2641,-2321,-6,8,-31
12249793,2244,2657,-2305,0,10,-37
12252829,2243,2638,-2333,-7,5,-31
12255865,2248,2640,-2324,-2,3,-36
12258902,2226,2657,-2341,-6,13,-35
12262073,2269,2651,-2388,-1,5,-36
12265061,2233,2652,-2366,-9,11,-38
12268184,2238,2641,-2361,-2,10,-31
12271307,2227,2637,-2349,-10,12,-37
12274517,2245,2658,-2340,-6,10,-31
12277640,2247,2660,-2323,-11,12,-34
12280849,2241,2641,-2333,-12,6,-28
12283972,2236,2654,-2323,-13,21,-28
12287205,2220,2634,-2332,-12,7,-23
12290305,2255,2674,-2328,-12,20,-21
12293515,2229,2673,-2349,-14,8,-20
12296673,2223,2652,-2359,-12,20,-14
12299848,2250,2684,-2367,-17,8,-19
12302971,2232,2679,-2318,-12,22,-11
12306180,2223,2651,-2310,-17,12,-10
12309390,2246,2667,-2333,-17,27,-9
12312538,2246,2673,-2298,-21,20,-7
12315636,2264,2674,-2313,-15,18,1
12318672,2228,2653,-2304,-19,22,-1
12321795,2229,2671,-2324,-16,15,7
12324832,2233,2660,-2340,-21,21,6
12327868,2259,2662,-2280,-15,21,9
12330904,2255,2645,-2323,-20,17,8
12333940,2254,2661,-2292,-14,20,17
12337088,2251,2660,-2291,-19,20,13
12340186,2233,2669,-2318,-13,23,16
12343309,2277,2652,-2328,-17,25,13
12346432,2234,2688,-2296,-14,16,14
12349555,2244,2664,-2332,-19,26,16
12352678,2261,2662,-2300,-10,14,13
12355801,2238,2651,-2326,-16,25,12
12358924,2242,2674,-2338,-13,15,9
12362009,2261,2644,-2296,-16,26,6
12364997,2260,2667,-2315,-11,13,4
12368033,2278,2661,-2306,-14,22,0
12371069,2263,2627,-2318,-10,7,1
12374019,2252,2651,-2363,-12,18,-3
12377142,2287,2654,-2294,-6,10,-7
12380178,2242,2656,-2343,-8,26,-6
12383214,2244,2665,-2312,-6,8,-10
12386277,2252,2658,-2340,-5,23,-8
12389287,2246,2635,-2333,-2,8,-9
12392236,2297,2633,-2370,-3,19,-14
12395359,2257,2670,-2345,-1,7,-14
12398431,2250,2663,-2313,-5,20,-16
12401519,2262,2645,-2342,-2,7,-15
12404555,2282,2651,-2338,-1,21,-18
12407678,2267,2624,-2349,-2,7,-17
12410714,2272,2650,-2306,-2,18,-20
12413862,2272,2643,-2305,-3,4,-23
12416874,2256,2663,-2366,-2,14,-22
12419997,2269,2650,-2334,-6,4,-25
12423033,2270,2650,-2318,-2,21,-26
12426156,2250,2644,-2340,-4,3,-27
12429192,2239,2665,-2371,-2,19,-26
12432315,2262,2668,-2369,-8,3,-33
12435351,2227,2651,-2323,-10,21,-26
12438586,2253,2669,-2332,-6,4,-30
12441597,2267,2676,-2308,-6,17,-24
12444720,2237,2641,-2331,-11,8,-27
12447843,2246,2646,-2368,-8,21,-26
12450966,2242,2659,-2338,-14,5,-22
12454089,2241,2630,-2341,-11,22,-21
12457299,2255,2650,-2358,-14,7,-21
12460422,2249,2664,-2323,-11,18,-19
12463680,2262,2653,-2348,-17,14,-18
12466841,2235,2645,-2337,-12,17,-12
12470051,2258,2660,-2327,-18,12,-15
12473261,2249,2664,-2346,-13,17,-10
12476471,2264,2663,-2351,-18,22,-10
12479680,2254,2649,-2351,-13,10,-6
12482803,2260,2666,-2335,-22,21,-7
12485930,2251,2660,-2320,-16,13,-5
12489073,2227,2657,-2340,-20,24,-5
12492172,2244,2667,-2346,-17,13,-3
12495295,2243,2650,-2301,-15,27,-3
12498457,2247,2672,-2313,-20,11,-1
12501541,2240,2667,-2291,-16,24,0
12504578,2220,2662,-2323,-17,14,0
12507614,2247,2662,-2317,-16,27,-4
12510737,2235,2672,-2290,-17,11,1
12513798,2235,2676,-2360,-16,22,-3
12516896,2252,2683,-2290,-14,11,-1
12520019,2225,2689,-2290,-16,27,-2
12523142,2263,2638,-2316,-14,10,0
12526178,2250,2644,-2327,-9,25,4
12529128,2241,2681,-2318,-12,10,2
12532164,2210,2658,-2305,-8,27,2
12535114,2246,2646,-2332,-7,8,-1
12538088,2245,2661,-2334,-7,27,1
12541013,2261,2654,-2340,-11,11,3
12544049,2267,2671,-2332,-8,25,-1
12547085,2262,2654,-2327,-8,13,-1
12550121,2265,2638,-2342,-5,23,1
12553071,2261,2672,-2321,-6,9,-1
12556020,2238,2678,-2324,-4,21,-5
12559057,2234,2659,-2368,-4,10,-3
12562154,2272,2646,-2346,-4,20,-7
12565129,2266,2643,-2341,-5,8,-10
12568165,2255,2645,-2331,-7,20,-14
12571288,2258,2626,-2332,-4,8,-13
12574325,2242,2675,-2370,-5,20,-11
12577448,2261,2662,-2357,-1,5,-15
12580484,2277,2675,-2330,-5,14,-17
12583607,2261,2664,-2369,-2,9,-15
12586666,2253,2647,-2349,-4,23,-16
12589766,2253,2669,-2319,-5,5,-22
12592802,2269,2650,-2341,-2,20,-20
12595925,2276,2666,-2342,-6,6,-24
12598997,2268,2636,-2330,-1,22,-17
12602085,2254,2662,-2346,-8,5,-17
12605121,2246,2614,-2362,-4,23,-20
12608244,2250,2673,-2339,-9,8,-19
12611305,2275,2652,-2351,-8,21,-17
12614403,2232,2652,-2352,-11,7,-18
12617526,2252,2652,-2356,-6,16,-18
12620649,2261,2646,-2307,-12,10,-20
12623859,2243,2657,-2316,-12,18,-15
12627069,2238,2643,-2308,-14,8,-16
12630192,2250,2641,-2344,-13,15,-14
12633402,2253,2648,-2306,-15,24,-14
12636636,2261,2660,-2299,-15,7,-19
12639734,2242,2651,-2299,-20,22,-18
12642944,2262,2664,-2306,-17,9,-17
12646067,2242,2650,-2298,-21,21,-14
12649277,2250,2655,-2330,-19,7,-16
12652400,2247,2647,-2304,-9,24,-16
12655523,2272,2639,-2309,-19,8,-16
12658646,2258,2658,-2329,-15,24,-12
12661904,2220,2670,-2310,-18,10,-16
12665065,2238,2667,-2309,-10,21,-9
12668188,2239,2679,-2271,-19,17,-13
12671398,2220,2674,-2318,-9,13,-6
12674434,2240,2666,-2341,-18,20,-13
12677644,2254,2690,-2353,-10,14,-5
12680767,2222,2660,-2312,-15,16,-7
12683890,2233,2675,-2311,-8,19,-3
12686950,2258,2655,-2313,-13,21,-6
12690049,2239,2665,-2318,-6,11,-1
12693085,2247,2647,-2320,-14,21,-3
12696208,2235,2700,-2347,-10,12,-1
12699366,2238,2650,-2326,-12,21,-3
12702454,2245,2644,-2330,-7,11,0
12705404,2248,2643,-2323,-12,20,-2
12708527,2249,2663,-2316,-8,11,1
12711501,2250,2644,-2355,-12,19,0
12714513,2265,2676,-2330,-3,12,-1
12717549,2252,2660,-2297,-10,18,-6
12720672,2252,2637,-2354,-7,14,0
12723621,2234,2652,-2349,-11,21,-7
12726744,2238,2648,-2337,-9,10,-2
12729781,2243,2641,-2338,-8,22,-8
12732817,2252,2672,-2343,-7,10,-6
12735857,2231,2639,-2323,-9,22,-6
12738914,2232,2655,-2320,-7,8,-8
12741839,2279,2644,-2340,-12,22,-4
12744962,2246,2667,-2311,-4,11,-6
12747998,2254,2659,-2332,-10,21,-6
12751121,2248,2665,-2330,-6,11,-8
12754157,2252,2656,-2357,-8,16,-5
12757194,2261,2638,-2346,-5,10,-6
12760230,2275,2661,-2365,-10,15,-9
12763401,2279,2645,-2361,-6,12,-7
12766389,2265,2666,-2333,-10,17,-9
12769512,2241,2640,-2337,-8,7,-9
12772462,2244,2630,-2350,-10,23,-13
12775672,2249,2632,-2375,-7,7,-10
12778708,2261,2645,-2365,-6,21,-13
12781831,2255,2662,-2362,-7,6,-14
12784867,2243,2653,-2357,-10,24,-21
12788100,2273,2647,-2314,-9,5,-20
12791113,2267,2649,-2348,-12,23,-18
12794323,2256,2644,-2322,-11,7,-22
12797446,2234,2656,-2346,-9,20,-22
12800603,2238,2651,-2337,-11,8,-28
12803692,2251,2649,-2315,-10,16,-23
12806901,2247,2654,-2335,-12,7,-24
12810024,2240,2661,-2329,-11,18,-22
12813259,2288,2656,-2329,-15,14,-23
12816444,2252,2676,-2336,-10,13,-22
12819654,2229,2683,-2376,-18,14,-24
12822863,2236,2677,-2367,-10,16,-19
12826073,2236,2645,-2318,-15,21,-15
12829283,2235,2679,-2319,-12,10,-16
12832493,2262,2676,-2314,-14,23,-16
12835702,2250,2662,-2345,-8,7,-10
12838763,2241,2645,-2361,-14,23,-12
12841948,2224,2653,-2346,-14,8,-9
12844985,2231,2689,-2332,-12,23,-8
12848108,2219,2645,-2329,-12,11,-5
12851231,2241,2645,-2332,-15,24,-3
12854354,2260,2654,-2315,-9,10,-4
12857390,2232,2666,-2323,-11,23,-2
12860513,2271,2712,-2335,-15,11,-4
12863684,2241,2664,-2315,-12,24,0
12866672,2220,2644,-2343,-12,11,-2
12869795,2236,2667,-2365,-11,23,0
12872831,2263,2639,-2327,-14,12,-4
12875954,2242,2648,-2325,-10,24,-1
12879077,2257,2651,-2327,-14,8,-2
12882114,2246,2674,-2341,-10,24,0
12885150,2254,2641,-2319,-13,10,-1
12888301,2243,2660,-2322,-7,22,1
12891222,2249,2649,-2311,-14,10,0
12894259,2255,2654,-2293,-4,25,3
12897208,2235,2629,-2313,-10,8,-4
12900248,2217,2640,-2330,-7,26,-3
12903316,2268,2655,-2338,-6,8,-2
12906230,2263,2667,-2335,-9,25,-5
12909266,2266,2647,-2343,-8,9,-7
12912240,2247,2656,-2331,-7,23,-6
12915252,2253,2663,-2306,-8,8,-6
12918202,2252,2646,-2324,-8,22,-7
12921238,2245,2666,-2330,-6,9,-9
12924187,2260,2657,-2359,-5,24,-8
12927224,2268,2631,-2343,-6,6,-14
12930260,2268,2662,-2310,-6,20,-11
12933383,2266,2664,-2326,-7,9,-16
12936444,2245,2656,-2322,-2,16,-16
12939542,2270,2647,-2355,-9,9,-18
12942579,2250,2650,-2377,-3,17,-17
12945701,2242,2640,-2352,-7,5,-22
12948738,2244,2639,-2324,-3,20,-19
12951861,2263,2671,-2288,-6,7,-20
12954897,2261,2673,-2355,-2,18,-21
12958020,2255,2645,-2359,-8,5,-23
12961060,2254,2656,-2344,-5,20,-20
12964229,2244,2654,-2326,-14,10,-25
12967389,2235,2651,-2337,-5,9,-18
12970425,2255,2662,-2316,-11,8,-24
12973548,2261,2676,-2360,-6,14,-22
12976671,2227,2649,-2340,-11,13,-23
12979881,2251,2653,-2368,-7,17,-22
12983004,2244,2648,-2321,-18,17,-22
12986238,2242,2658,-2337,-8,13,-16
12989337,2231,2658,-2324,-16,17,-19
12992546,2264,2654,-2339,-11,9,-19
12995670,2286,2660,-2358,-16,18,-14
12998879,2246,2653,-2357,-12,7,-12
13002002,2247,2653,-2357,-14,26,-12
13005247,2241,2660,-2337,-13,10,-13
13008422,2265,2655,-2359,-14,25,-6
13011569,2238,2660,-2343,-12,11,-9
13014668,2246,2661,-2336,-17,25,-8
13017791,2256,2669,-2341,-15,16,-5
13020914,2227,2651,-2337,-10,24,-4
13024037,2252,2652,-2323,-17,12,-2
13027160,2246,2644,-2327,-11,24,5
13030196,2244,2656,-2338,-14,12,0
13033232,2243,2670,-2313,-16,24,4
13036293,2228,2669,-2310,-13,9,2
13039218,2262,2662,-2318,-12,28,4
13042254,2232,2648,-2331,-12,7,1
13045204,2246,2653,-2337,-14,28,3
13048240,2248,2667,-2335,-15,10,4
13051276,2242,2653,-2341,-8,27,2
13054226,2258,2658,-2321,-14,10,1
13057262,2257,2639,-2353,-7,25,2
13060212,2236,2655,-2321,-10,9,0
13063263,2258,2645,-2327,-10,22,1
13066197,2254,2662,-2339,-14,10,-3
13069320,2247,2664,-2323,-6,20,-5
13072356,2252,2647,-2314,-12,8,0
13075306,2261,2649,-2327,-6,21,-10
13078429,2273,2677,-2315,-10,17,-12
13081639,2260,2647,-2329,-4,15,-7
13084675,2237,2646,-2330,-8,9,-14
13087734,2256,2669,-2322,-7,13,-13
13090834,2234,2662,-2321,-10,11,-15
13094044,2259,2662,-2331,-5,15,-13
13097167,2255,2656,-2320,-8,8,-17
13100203,2268,2652,-2347,-3,8,-17
13103239,2234,2650,-2355,-9,17,-17
13106401,2224,2633,-2311,-2,6,-17
13109399,2262,2659,-2320,-9,18,-19
13112546,2250,2645,-2354,-5,7,-19
13115558,2230,2665,-2318,-9,14,-20
13118681,2263,2653,-2352,-5,8,-21
13121717,2242,2655,-2363,-10,17,-23
13124927,2271,2647,-2318,-5,9,-18
13127963,2238,2667,-2287,-9,14,-21
13131086,2249,2647,-2324,-7,6,-18
13134123,2250,2663,-2324,-10,21,-22
13137357,2252,2648,-2352,-5,5,-22
13140368,2241,2660,-2351,-10,21,-22
13143578,2239,2676,-2355,-7,6,-18
13146614,2249,2645,-2351,-10,23,-20
13149824,2272,2641,-2321,-8,4,-19
13152860,2261,2625,-2330,-9,24,-12
13155983,2250,2647,-2344,-12,10,-19
13159193,2250,2653,-2329,-13,20,-15
13162451,2263,2640,-2324,-14,9,-14
13165526,2240,2650,-2362,-11,23,-12
13168736,2253,2669,-2345,-17,13,-13
13171945,2242,2661,-2343,-9,16,-7
13174982,2244,2647,-2318,-18,13,-7
13178105,2244,2647,-2340,-12,19,-6
13181228,2248,2649,-2322,-18,13,-4
13184351,2229,2639,-2302,-11,18,-6
13187497,2238,2649,-2365,-16,14,-3
13190597,2228,2671,-2328,-9,12,2
13193546,2230,2649,-2323,-17,12,-5
13196669,2258,2648,-2322,-12,14,0
13199705,2225,2647,-2305,-16,22,0
13202742,2258,2638,-2297,-10,19,0
13205778,2271,2672,-2304,-17,19,2
13208849,2227,2655,-2336,-10,17,-1
13211962,2264,2648,-2316,-16,15,-3
13215060,2284,2672,-2326,-7,16,-2
13218096,2257,2669,-2329,-18,15,-5
13221219,2275,2677,-2321,-9,15,1
13224169,2245,2668,-2333,-14,15,-10
13227379,2262,2648,-2331,-9,10,-9
13230415,2250,2670,-2314,-15,20,-9
13233538,2250,2670,-2359,-9,10,-9
13236599,2253,2656,-2297,-14,22,-9
13239697,2241,2672,-2345,-8,8,-10
13242734,2238,2655,-2331,-10,22,-10
13245943,2253,2655,-2318,-6,13,-8
13248980,2260,2662,-2319,-10,21,-12
13252189,2218,2668,-2349,-11,4,-12
13255312,2247,2656,-2315,-7,24,-10
13258435,2243,2667,-2384,-3,5,-13
13261520,2252,2654,-2304,-7,19,-14
13264594,2248,2644,-2356,-9,8,-15
13267631,2250,2641,-2354,1,15,-13
13270667,2237,2663,-2369,-12,8,-17
13273790,2271,2664,-2307,2,17,-14
13276826,2248,2676,-2304,-9,9,-18
13279862,2247,2629,-2305,0,16,-14
13282899,2274,2650,-2316,-6,10,-14
13286025,2239,2655,-2375,-7,13,-18
13289168,2247,2651,-2351,-11,17,-13
13292354,2269,2652,-2312,-5,11,-15
13295477,2271,2665,-2343,-15,20,-13
13298687,2230,2633,-2305,-8,9,-15
13301723,2240,2667,-2322,-14,19,-12
13304933,2245,2679,-2355,-11,3,-12
13308056,2251,2645,-2315,-13,23,-11
13311309,2253,2650,-2313,-12,10,-12
13314476,2266,2642,-2314,-15,24,-7
13317599,2278,2657,-2337,-14,6,-13
13320722,2242,2649,-2338,-13,22,-10
13323931,2248,2658,-2368,-14,8,-12
13327054,2235,2678,-2317,-12,22,-9
13330177,2263,2676,-2358,-17,14,-9
13333301,2235,2665,-2347,-11,19,-8
13336448,2257,2654,-2356,-17,10,-15
13339633,2250,2653,-2327,-11,14,-15
13342843,2233,2660,-2331,-17,20,-13
13346053,2242,2657,-2340,-14,14,-12
13349263,2246,2656,-2321,-16,19,-11
13352472,2199,2646,-2328,-12,14,-7
13355595,2261,2644,-2318,-12,25,-11
13358805,2226,2670,-2326,-12,6,-11
13361976,2234,2660,-2341,-15,23,-11
13365138,2248,2669,-2345,-10,9,-9
13368174,2246,2654,-2312,-11,24,-9
13371297,2244,2654,-2329,-7,9,-8
13374246,2265,2673,-2339,-12,26,-8
13377369,2246,2663,-2310,-9,7,-9
13380319,2247,2669,-2337,-10,24,-8
13383442,2250,2642,-2341,-11,10,-8
13386589,2255,2657,-2333,-5,19,-8
13389601,2245,2646,-2331,-9,8,-9
13392551,2245,2674,-2332,-6,19,-9
13395587,2246,2669,-2330,-9,7,-8
13398536,2236,2674,-2342,-7,24,-8
13401573,2270,2659,-2316,-10,9,-9
13404609,2222,2661,-2334,-5,24,-10
13407732,2240,2661,-2331,-10,9,-8
13410772,2270,2645,-2318,-8,25,-9
13413846,2250,2671,-2336,-8,6,-7
13416754,2233,2649,-2317,-11,27,-3
13419877,2250,2661,-2357,-8,11,-10
13423000,2273,2672,-2360,-7,22,-6
13426036,2290,2655,-2311,-7,9,-8
13428986,2235,2660,-2333,-12,25,-8
13432109,2242,2646,-2349,-9,7,-4
13435058,2249,2663,-2318,-5,23,-5
13438119,2262,2665,-2332,-9,6,-10
13441131,2218,2644,-2350,-6,23,-7
13444167,2241,2656,-2337,-11,7,-7
13447203,2251,2658,-2379,-9,22,-10
13450326,2234,2661,-2312,-9,6,-11
13453362,2261,2647,-2343,-8,22,-11
13456485,2260,2655,-2310,-9,6,-12
13459522,2256,2647,-2338,-10,26,-13
13462780,2274,2671,-2336,-12,7,-12
13465854,2244,2643,-2327,-9,17,-10
13468977,2260,2648,-2338,-16,14,-13
13472187,2268,2638,-2290,-9,15,-13
13475310,2257,2645,-2318,-13,10,-16
13478520,2239,2636,-2329,-7,18,-14
13481643,2229,2645,-2323,-16,13,-12
13484853,2238,2650,-2322,-12,8,-17
13488000,2254,2661,-2357,-16,19,-13
13491186,2231,2644,-2338,-12,10,-18
13494395,2232,2646,-2376,-15,19,-18
13497605,2240,2669,-2319,-12,6,-17
13500728,2259,2655,-2315,-13,21,-20
13503938,2224,2683,-2332,-8,7,-13
13506974,2254,2653,-2340,-14,21,-18
13510184,2252,2685,-2346,-15,10,-16
13513420,2236,2652,-2346,-12,21,-19
13516638,2233,2661,-2313,-10,5,-20
13519726,2252,2663,-2385,-10,24,-16
13522936,2233,2655,-2337,-11,6,-15
13526059,2236,2669,-2332,-10,25,-14
13529269,2234,2643,-2328,-10,5,-15
13532392,2243,2662,-2311,-5,23,-12
13535515,2236,2670,-2325,-7,4,-14
13538575,2251,2646,-2320,-8,24,-11
13541674,2214,2664,-2313,-9,8,-11
13544710,2224,2663,-2343,-4,22,-9
13547746,2201,2656,-2338,-9,7,-10
13550783,2257,2656,-2325,-6,20,-9
13553819,2261,2663,-2348,-12,12,-9
13556942,2246,2685,-2305,-7,23,-6
13559978,2269,2651,-2337,-12,11,-8
13563162,2253,2645,-2343,-6,12,-4
13566137,2246,2655,-2317,-13,17,1
13569174,2242,2661,-2342,-4,13,2
13572123,2221,2638,-2332,-15,20,-4
13575246,2258,2668,-2361,-6,16,-1
13578282,2248,2662,-2347,-12,17,-2
13581405,2274,2671,-2323,-10,18,-1
13584529,2263,2671,-2375,-14,15,2
13587589,2261,2647,-2333,-7,16,1
13590514,2252,2670,-2343,-13,17,2
13593551,2256,2651,-2344,-8,19,1
13596500,2245,2665,-2333,-15,16,-3
13599623,2264,2673,-2378,-8,18,0
13602572,2242,2642,-2337,-14,11,1
13605609,2244,2645,-2296,-4,19,1
13608558,2251,2652,-2331,-16,15,-4
13611704,2236,2651,-2330,-8,18,-2
13614717,2238,2647,-2321,-14,11,-3
13617875,2261,2651,-2361,-9,14,-5
13620877,2264,2628,-2343,-13,18,-10
13624086,2255,2653,-2342,-8,12,-9
13627123,2264,2686,-2378,-11,12,-10
13630333,2272,2647,-2363,-10,10,-9
13633455,2233,2649,-2330,-13,18,-14
13636690,2236,2637,-2343,-7,10,-14
13639788,2240,2673,-2327,-11,22,-15
13642998,2262,2659,-2342,-7,8,-13
13646034,2278,2652,-2357,-11,21,-23
13649244,2244,2645,-2354,-9,7,-20
13652280,2254,2662,-2342,-11,19,-22
13655490,2281,2659,-2318,-9,9,-25
13658526,2250,2653,-2334,-6,21,-18
13661697,2236,2679,-2367,-8,5,-25
13664685,2248,2653,-2310,-9,20,-22
13667809,2232,2657,-2299,-7,4,-23
13670845,2274,2647,-2333,-6,19,-26
13673968,2238,2672,-2349,-9,8,-27
13677004,2236,2679,-2333,-6,16,-23
13680127,2231,2675,-2339,-8,8,-24
13683163,2229,2651,-2319,-8,21,-25
13686311,2225,2660,-2325,-9,7,-25
13689322,2238,2629,-2337,-3,16,-22
13692445,2261,2655,-2340,-13,5,-18
13695568,2233,2658,-2326,-2,14,-20
13698691,2228,2655,-2379,-11,14,-19
13701901,2236,2673,-2319,-7,15,-14
13705024,2222,2648,-2367,-10,11,-16
13708234,2258,2649,-2304,-8,9,-14
13711293,2265,2665,-2304,-12,24,-13
13714480,2255,2662,-2332,-6,12,-8
13717520,2244,2672,-2334,-15,19,-9
13720674,2272,2669,-2344,-8,15,-5
13723675,2246,2648,-2339,-14,18,-3
13726798,2233,2661,-2332,-8,13,2
13729748,2269,2635,-2368,-16,17,-1
13732871,2226,2662,-2361,-10,13,6
13735911,2243,2660,-2392,-15,17,2
13738968,2256,2662,-2347,-10,18,5
13741980,2249,2666,-2327,-14,28,8
13745016,2260,2639,-2329,-11,12,7
13748052,2237,2643,-2329,-13,25,8
13751088,2233,2650,-2338,-13,13,3
13754125,2226,2652,-2350,-12,27,5
13757161,2242,2659,-2332,-13,9,4
13760110,2257,2673,-2335,-18,28,4
13763195,2249,2641,-2296,-10,14,6
13766183,2275,2660,-2341,-16,27,8
13769219,2259,2647,-2300,-12,13,5
13772255,2251,2649,-2356,-14,24,-1
13775378,2263,2640,-2329,-11,12,1
13778415,2240,2654,-2318,-14,21,-2
13781538,2262,2650,-2306,-9,10,-4
13784574,2261,2638,-2330,-15,21,-7
13787721,2249,2651,-2316,-10,8,-8
13790733,2242,2630,-2340,-10,21,-8
13793856,2262,2644,-2373,-6,5,-13
13796892,2242,2626,-2359,-12,22,-15
13800102,2236,2643,-2341,-9,5,-18
13803138,2269,2647,-2349,-6,22,-16
13806261,2270,2658,-2341,-9,5,-16
13809298,2232,2636,-2357,-9,23,-18
13812444,2247,2639,-2346,-9,5,-21
13815457,2261,2646,-2294,-7,22,-27
13818580,2263,2662,-2354,-7,6,-27
13821651,2269,2665,-2340,-2,17,-27
13824739,2246,2643,-2310,-8,1,-25
13827776,2261,2639,-2345,-4,17,-24
13830898,2250,2680,-2337,-9,2,-29
13833935,2234,2666,-2329,-2,18,-29
13837082,2252,2644,-2324,-8,7,-27
13840094,2225,2676,-2356,-4,14,-27
13843217,2234,2650,-2333,-11,3,-30
13846340,2249,2642,-2331,-7,7,-27
13849376,2235,2674,-2334,-10,18,-25
13852586,2263,2650,-2342,-5,10,-24
13855709,2235,2641,-2342,-14,15,-22
13858919,2238,2647,-2335,-6,10,-21
13862090,2241,2671,-2312,-14,17,-19
13865251,2237,2665,-2331,-9,7,-13
13868288,2230,2648,-2309,-12,24,-12
13871497,2272,2676,-2353,-9,9,-12
13874534,2243,2650,-2308,-14,26,-8
13877657,2231,2642,-2302,-13,9,-6
13880693,2263,2661,-2311,-9,23,-6
13883729,2228,2656,-2366,-11,9,-2
13886790,2252,2656,-2317,-13,26,1
13889802,2262,2666,-2347,-10,12,1
13892838,2246,2661,-2349,-16,25,1
13895874,2263,2672,-2357,-14,14,3
13898910,2245,2639,-2338,-13,26,6
13901947,2217,2640,-2357,-17,9,4
13904896,2239,2637,-2346,-16,25,1
13907932,2245,2653,-2300,-14,13,4
13910972,2232,2667,-2309,-7,24,6
13913941,2279,2650,-2330,-15,10,3
13916954,2250,2649,-2327,-9,26,6
13919904,2262,2659,-2304,-13,11,5
13922975,2232,2652,-2333,-10,28,2
13925976,2240,2658,-2345,-12,12,1
13929013,2245,2660,-2313,-11,26,5
13932049,2246,2662,-2348,-12,12,-2
13935172,2249,2654,-2340,-5,25,1
13938146,2255,2662,-2341,-14,11,-3
13941244,2257,2630,-2331,-10,24,1
13944281,2252,2662,-2326,-9,7,-4
13947230,2261,2666,-2320,-7,24,-7
13950266,2251,2657,-2321,-9,8,1
13953129,2252,2674,-2314,-10,24,-9
13956252,2264,2660,-2336,-7,4,-11
13959289,2248,2666,-2349,-6,23,-12
13962461,2241,2655,-2336,-9,8,-9
13965361,2250,2651,-2338,-5,23,-15
13968484,2239,2656,-2354,-7,7,-15
13971520,2266,2671,-2307,-3,18,-17
13974643,2248,2668,-2327,-7,6,-20
13977679,2244,2634,-2337,-7,17,-17
13980803,2253,2643,-2355,-10,5,-23
13983925,2275,2667,-2313,-5,16,-21
13987073,2254,2649,-2321,-11,7,-21
13990171,2251,2639,-2327,-4,15,-20
13993294,2251,2650,-2313,-8,7,-24
13996331,2236,2671,-2318,-8,7,-23
13999367,2233,2651,-2367,-8,17,-25
14002490,2257,2668,-2315,-7,5,-23
14005526,2246,2658,-2318,-13,18,-21
14008736,2247,2641,-2364,-7,10,-26
14011882,2212,2682,-2350,-11,15,-23
14015069,2244,2663,-2326,-6,12,-25
14018192,2226,2678,-2321,-6,22,-19
14021315,2237,2667,-2292,-11,6,-17
14024473,2248,2636,-2312,-8,20,-16
14027561,2250,2679,-2356,-12,6,-19
14030684,2261,2646,-2333,-9,22,-13
14033807,2244,2673,-2360,-9,6,-14
14036867,2231,2664,-2289,-12,23,-13
14040053,2237,2650,-2334,-10,10,-8
14043176,2244,2654,-2318,-9,23,-5
14046212,2254,2660,-2329,-13,9,-8
14049248,2248,2658,-2327,-12,26,-2
14052371,2232,2661,-2322,-10,11,-4
14055494,2240,2650,-2329,-12,28,4
14058530,2251,2650,-2310,-14,9,1
14061582,2274,2662,-2320,-14,24,2
14064516,2229,2662,-2362,-13,12,2
14067552,2252,2668,-2331,-13,23,2
14070589,2239,2667,-2357,-10,8,2
14073538,2234,2654,-2350,-12,26,3
14076574,2252,2656,-2342,-14,9,1
14079524,2271,2665,-2332,-15,25,-1
14082647,2259,2653,-2344,-13,11,0
14085687,2257,2662,-2346,-16,27,-1
14088831,2266,2652,-2352,-15,9,-1
14091842,2280,2641,-2308,-10,25,0
14094879,2251,2650,-2352,-14,10,-2
14098002,2270,2650,-2310,-7,23,-3
14101038,2251,2635,-2339,-13,10,-6
14104161,2249,2630,-2338,-7,19,-2
14107197,2233,2653,-2318,-10,8,-6
14110233,2252,2665,-2320,-4,21,-2
14113293,2255,2665,-2341,-12,10,-10
14116479,2260,2638,-2317,-4,18,-8
14119516,2253,2668,-2324,-8,9,-10
14122552,2251,2663,-2351,-3,10,-13
14125714,2240,2652,-2314,-10,14,-18
14128885,2275,2637,-2311,-1,11,-20
14132008,2283,2649,-2389,-8,9,-22
14135044,2253,2653,-2351,-4,9,-24
14138105,2252,2667,-2332,-12,15,-25
14141290,2245,2659,-2355,-5,9,-26
14144326,2258,2649,-2313,-10,12,-28
14147536,2265,2661,-2363,-5,4,-26
14150572,2231,2655,-2337,-11,21,-26
14153782,2236,2641,-2320,-5,9,-26
14156818,2241,2653,-2298,-8,16,-28
14159941,2210,2655,-2336,-5,7,-19
14163026,2258,2679,-2328,-8,19,-25
14166100,2263,2666,-2348,-6,8,-18
14169137,2255,2655,-2316,-10,23,-19
14172346,2250,2648,-2326,-9,6,-15
14175383,2261,2666,-2347,-5,24,-8
14178419,2239,2656,-2336,-5,6,-11
14181455,2246,2642,-2351,-9,23,-6
14184491,2256,2676,-2351,-10,9,-7
14187552,2249,2673,-2348,-12,23,-7
14190651,2239,2668,-2333,-13,9,-6
14193687,2245,2683,-2367,-13,27,-4
14196810,2266,2659,-2358,-12,13,-4
14199933,2267,2643,-2313,-19,24,-4
14203056,2234,2665,-2332,-15,12,-3
14206179,2257,2670,-2336,-14,25,-3
14209302,2269,2652,-2352,-21,10,-4
14212448,2237,2644,-2306,-12,26,0
14215461,2249,2667,-2322,-18,16,1
14218497,2246,2624,-2284,-16,27,-2
14221621,2261,2680,-2293,-18,9,2
14224570,2271,2644,-2338,-11,27,2
14227641,2250,2656,-2346,-18,11,-4
14230729,2246,2669,-2328,-15,28,0
14233765,2263,2649,-2335,-15,10,-1
14236913,2269,2661,-2341,-11,16,1
14239925,2266,2670,-2316,-17,20,-4
14243048,2234,2643,-2310,-10,16,0
14246084,2237,2676,-2326,-15,17,-6
14249207,2254,2679,-2372,-8,17,-2
14252243,2273,2646,-2322,-11,16,-7
14255366,2262,2666,-2300,-8,12,-5
14258402,2226,2671,-2321,-11,13,-8
14261574,2253,2652,-2353,-7,16,-9
14264562,2259,2659,-2341,-9,14,-12
14267685,2264,2642,-2334,-6,9,-12
14270721,2234,2658,-2334,-9,18,-14
14273844,2259,2670,-2343,-3,9,-13
14276880,2240,2634,-2394,-7,14,-18
14280003,2229,2643,-2320,-3,12,-20
14283126,2263,2631,-2342,-8,16,-18
14286274,2256,2646,-2358,-3,8,-18
14289285,2241,2655,-2359,-9,13,-25
14292408,2268,2656,-2320,-3,8,-22
14295445,2223,2656,-2335,-9,21,-22
14298568,2247,2657,-2303,-5,4,-21
14301604,2263,2669,-2359,-7,18,-23
14304727,2244,2638,-2317,-3,3,-18
14307763,2230,2668,-2329,-7,20,-22
14310890,2261,2652,-2361,-3,3,-21
14313946,2227,2659,-2348,-8,22,-22
14317045,2260,2674,-2329,-5,6,-20
14320082,2244,2646,-2326,-12,22,-20
14323291,2241,2673,-2337,-7,5,-17
14326328,2260,2647,-2336,-8,17,-14
14329486,2253,2660,-2338,-7,6,-16
14332487,2246,2645,-2328,-4,24,-13
14335610,2242,2671,-2349,-10,6,-13
14338757,2233,2676,-2315,-10,23,-12
14341943,2230,2663,-2344,-12,7,-11
14345066,2240,2651,-2359,-7,15,-7
14348102,2249,2660,-2330,-16,14,-8
14351225,2245,2663,-2367,-6,21,-9
14354261,2227,2641,-2336,-15,12,-9
14357384,2271,2659,-2347,-12,20,-2
14360507,2228,2657,-2315,-14,10,-2
14363679,2237,2654,-2324,-11,24,-2
14366753,2263,2657,-2293,-19,11,-1
14369876,2260,2633,-2333,-11,17,-1
14372999,2241,2652,-2331,-20,20,-2
14376122,2245,2675,-2321,-13,15,2
14379158,2223,2668,-2338,-18,20,2
14382195,2259,2642,-2346,-12,14,0
14385231,2269,2660,-2333,-18,19,-1
14388378,2292,2669,-2316,-12,18,2
14391390,2252,2658,-2336,-19,14,0
14394426,2246,2656,-2340,-11,20,2
14397463,2253,2657,-2324,-16,16,-2
14400586,2214,2643,-2309,-13,14,-2
14403709,2238,2661,-2322,-21,23,-9
14406832,2265,2651,-2324,-11,12,-8
14409955,2229,2644,-2338,-18,20,-8
14413101,2278,2668,-2370,-10,10,-12
14416288,2263,2668,-2340,-13,17,-18
14419497,2220,2641,-2300,-6,14,-11
14422620,2214,2642,-2292,-10,21,-12
14425830,2224,2648,-2305,-9,4,-18
14428866,2239,2641,-2295,-8,21,-17
14432024,2244,2640,-2342,-9,10,-17
14435112,2248,2655,-2325,-9,21,-16
14438260,2239,2653,-2316,-3,6,-17
14441271,2242,2659,-2321,-3,24,-18
14444394,2244,2662,-2345,-9,7,-20
14447431,2247,2646,-2343,1,16,-21
14450467,2235,2660,-2315,-2,3,-22
14453503,2261,2656,-2346,-2,15,-21
14456626,2235,2643,-2327,-5,5,-21
14459662,2264,2667,-2337,0,18,-16
14462747,2245,2658,-2326,-5,7,-20
14465735,2247,2658,-2378,0,21,-20
14468771,2214,2637,-2337,-7,7,-20
14471807,2252,2653,-2323,0,21,-16
14474844,2262,2667,-2310,-6,8,-15
14477880,2237,2660,-2351,-3,20,-15
14481003,2228,2662,-2340,-8,8,-16
14484039,2237,2637,-2342,-6,22,-12
14487191,2262,2653,-2348,-10,13,-13
14490372,2250,2631,-2345,-5,16,-11
14493495,2229,2648,-2332,-13,8,-11
14496618,2245,2675,-2316,-8,21,-8
14499654,2263,2652,-2346,-15,14,-8
14502777,2259,2676,-2320,-8,19,-6
14505813,2255,2652,-2353,-15,8,-7
14508850,2256,2652,-2324,-9,22,-4
14511909,2234,2647,-2357,-14,12,-2
14515009,2260,2645,-2324,-10,16,-1
14518132,2254,2646,-2348,-19,20,0
14521168,2250,2671,-2351,-12,13,0
14524205,2244,2656,-2314,-20,20,1
14527241,2259,2654,-2360,-10,15,5
14530277,2267,2671,-2352,-17,15,0
14533348,2252,2678,-2323,-13,17,1
14536374,2271,2678,-2382,-18,16,-1
14539472,2265,2658,-2322,-12,22,2
14542509,2233,2640,-2325,-17,15,0
14545545,2262,2652,-2351,-8,19,2
14548494,2262,2669,-2339,-17,14,-3
14551617,2263,2668,-2302,-9,20,-3
14554654,2232,2685,-2319,-18,21,-5
14557777,2273,2649,-2338,-10,14,-8
14560903,2252,2655,-2358,-16,17,-12
14564170,2256,2665,-2335,-10,12,-8
14567232,2230,2648,-2369,-15,19,-15
14570442,2271,2653,-2357,-11,13,-15
14573652,2254,2669,-2342,-12,20,-18
14576862,2244,2644,-2308,-10,7,-19
14579985,2253,2666,-2294,-9,22,-19
14583108,2259,2663,-2331,-11,5,-19
14586255,2257,2662,-2334,-8,21,-21
14589354,2263,2643,-2365,-5,5,-19
14592390,2237,2648,-2320,-4,19,-19
14595513,2220,2630,-2327,-6,3,-20
14598549,2269,2664,-2331,-3,21,-17
14601672,2252,2660,-2332,-6,2,-19
14604708,2254,2639,-2340,-5,21,-18
14607831,2238,2648,-2334,-2,5,-16
14610871,2247,2659,-2325,-7,22,-15
14614014,2256,2656,-2326,-6,5,-16
14617027,2258,2641,-2340,-5,20,-16
14620150,2237,2657,-2332,-9,5,-16
14623186,2264,2670,-2319,-5,21,-18
14626309,2247,2651,-2364,-9,11,-13
14629432,2255,2657,-2346,-3,15,-13
14632555,2259,2657,-2351,-11,11,-16
14635803,2234,2655,-2326,-2,21,-12
14638912,2256,2630,-2344,-12,11,-15
14642098,2231,2664,-2359,-8,13,-14
14645221,2255,2640,-2332,-14,21,-12
14648430,2260,2638,-2321,-7,9,-13
14651467,2234,2648,-2337,-14,22,-9
14654590,2247,2676,-2348,-9,12,-10
14657713,2261,2668,-2319,-14,25,-10
14660926,2259,2635,-2352,-10,10,-4
14664094,2233,2658,-2332,-10,27,-5
14667168,2259,2650,-2300,-12,9,-2
14670205,2233,2671,-2327,-11,26,-1
14673328,2233,2647,-2330,-13,12,-3
14676451,2265,2652,-2343,-9,22,-3
14679487,2232,2648,-2348,-12,10,-1
14682610,2241,2640,-2320,-8,25,-1
14685650,2264,2646,-2341,-17,10,-1
14688794,2237,2667,-2359,-9,20,-1
14691805,2266,2682,-2332,-17,12,-4
14694928,2261,2664,-2311,-10,21,-7
14698051,2253,2665,-2329,-14,12,-7
14701174,2255,2643,-2348,-7,22,-2
14704211,2253,2665,-2336,-14,13,-9
14707334,2247,2664,-2330,-9,22,-6
14710370,2240,2668,-2348,-13,7,-11
14713516,2266,2634,-2353,-12,23,-8
14716616,2238,2654,-2336,-15,20,-10
14719826,2228,2660,-2363,-9,14,-9
14722862,2262,2647,-2308,-15,14,-13
14726072,2249,2651,-2316,-8,18,-12
14729195,2231,2651,-2320,-12,10,-16
14732404,2243,2668,-2310,-8,15,-11
14735531,2260,2631,-2323,-11,23,-14
14738780,2243,2677,-2327,-8,7,-12
14741773,2236,2646,-2347,-12,19,-17
14744983,2215,2671,-2294,-5,10,-17
14748106,2238,2660,-2317,-10,17,-13
14751316,2250,2656,-2324,-4,14,-16
14754439,2238,2667,-2317,-7,20,-17
14757562,2252,2650,-2318,-9,7,-16
14760602,2250,2669,-2362,-12,21,-19
14763856,2237,2648,-2334,-3,9,-17
14766844,2213,2658,-2310,-12,20,-17
14770054,2226,2645,-2344,-2,7,-14
14773090,2221,2643,-2326,-11,21,-19
14776300,2243,2665,-2316,-9,3,-13
14779336,2247,2659,-2308,-4,21,-18
14782459,2258,2675,-2357,-9,6,-15
14785495,2257,2640,-2303,-6,24,-10
14788643,2221,2655,-2338,-8,7,-15
14791655,2236,2660,-2328,-6,22,-14
14794778,2236,2674,-2327,-11,6,-16
14797901,2254,2668,-2314,-6,25,-15
14801024,2237,2681,-2316,-10,8,-12
14804147,2248,2650,-2331,-8,19,-11
14807270,2242,2668,-2294,-9,13,-7
14810306,2258,2678,-2308,-6,22,-2
14813367,2242,2668,-2324,-13,9,-9
14816378,2260,2643,-2335,-5,22,-3
14819415,2247,2676,-2316,-8,6,-8
14822364,2254,2650,-2386,-11,24,-1
14825487,2246,2661,-2273,-10,8,-2
14828523,2259,2664,-2328,-10,28,0
14831560,2249,2684,-2374,-13,11,-2
14834683,2268,2661,-2305,-15,26,-1
14837829,2229,2666,-2341,-12,13,-4
14840964,2239,2643,-2306,-9,21,-2
14843965,2227,2643,-2380,-11,9,-7
14847001,2266,2649,-2304,-10,19,-3
14850124,2259,2668,-2346,-15,12,-10
14853334,2254,2633,-2320,-10,22,-6
14856457,2271,2652,-2326,-15,12,-7
14859580,2235,2636,-2344,-10,20,-11
14862838,2254,2654,-2323,-16,17,-9
14865913,2277,2652,-2319,-11,13,-6
14869036,2275,2653,-2354,-18,16,-13
14872245,2263,2664,-2336,-11,17,-11
14875455,2253,2658,-2340,-14,13,-11
14878665,2268,2651,-2342,-11,5,-12
14881788,2249,2628,-2296,-17,23,-16
14884998,2277,2663,-2332,-10,8,-16
14888145,2254,2654,-2335,-12,18,-16
14891331,2227,2655,-2344,-8,8,-15
14894367,2252,2648,-2334,-12,21,-19
14897576,2241,2647,-2351,-10,9,-19
14900699,2215,2638,-2320,-4,25,-17
14903822,2265,2685,-2342,-11,5,-16
14906945,2235,2661,-2296,-7,21,-16
14910068,2248,2655,-2345,-5,6,-17
14913129,2235,2664,-2356,-8,22,-17
14916228,2240,2652,-2310,-8,5,-15
14919264,2230,2641,-2358,-6,23,-16
14922387,2270,2674,-2312,-7,7,-17
14925423,2270,2667,-2295,-6,22,-19
14928546,2227,2657,-2315,-8,6,-15
14931582,2240,2648,-2338,-5,24,-10
14934705,2259,2659,-2341,-8,6,-13
14937765,2253,2648,-2307,-4,18,-10
14940868,2233,2659,-2324,-10,6,-10
14944023,2232,2665,-2354,-5,24,-9
14947024,2264,2640,-2331,-8,9,-7
14949973,2258,2650,-2341,-9,21,-6
14953010,2234,2657,-2302,-10,9,-4
14956046,2259,2644,-2343,-6,17,-2
14959082,2250,2661,-2328,-11,12,-3
14962255,2267,2652,-2342,-6,19,-6
14965241,2247,2636,-2328,-15,13,-4
14968364,2255,2662,-2310,-9,19,-1
14971401,2274,2662,-2328,-15,9,-2
14974437,2257,2666,-2295,-10,21,-4
14977560,2261,2631,-2313,-15,10,-7
14980683,2275,2643,-2331,-10,20,-1
14983806,2242,2649,-2295,-13,13,-11
14987040,2261,2657,-2316,-10,14,-5
14990139,2257,2665,-2348,-18,17,-9
14993262,2263,2665,-2300,-8,15,-9
14996298,2236,2669,-2348,-14,11,-11
14999508,2255,2665,-2327,-6,16,-11
15002631,2244,2663,-2297,-15,13,-12
15005840,2258,2662,-2326,-7,8,-12
15008877,2252,2658,-2357,-11,21,-12
15012111,2245,2659,-2327,-9,5,-14
15015123,2258,2664,-2327,-13,22,-14
15018332,2254,2643,-2345,-7,5,-12
15021369,2257,2685,-2351,-11,21,-15
15024578,2236,2639,-2328,-11,4,-15
15027701,2252,2658,-2325,-10,21,-17
15030911,2255,2642,-2294,-9,3,-20
15033948,2240,2664,-2335,-8,22,-21
15037094,2244,2670,-2326,-7,7,-18
15040107,2239,2666,-2350,-10,20,-18
15043316,2247,2625,-2315,-7,8,-20
15046388,2259,2658,-2321,-12,22,-20
15049562,2241,2651,-2303,-10,6,-20
15052685,2269,2638,-2337,-9,24,-16
15055808,2247,2648,-2342,-11,8,-18
15058931,2221,2665,-2330,-7,21,-15
15062157,2251,2657,-2322,-9,6,-14
15065091,2263,2666,-2320,-10,23,-14
15068300,2222,2668,-2327,-13,13,-11
15071510,2241,2664,-2315,-3,16,-6
15074547,2257,2647,-2339,-10,12,-9
15077669,2233,2662,-2327,-5,18,-6
15080706,2257,2660,-2365,-9,10,-7
15083742,2244,2665,-2343,-7,22,-4
15086803,2237,2656,-2318,-14,8,-2
15089814,2247,2650,-2354,-9,23,-5
15092851,2249,2653,-2329,-11,8,-3
15095887,2291,2671,-2349,-8,21,-2
15098923,2268,2654,-2307,-13,7,-5
15101959,2235,2650,-2408,-7,22,-3
15104996,2272,2648,-2297,-16,11,-4
15108119,2272,2622,-2297,-8,12,-5
15111179,2237,2663,-2288,-16,22,-9
15114278,2264,2663,-2356,-10,16,-4
15117401,2239,2654,-2332,-17,20,-6
15120524,2253,2648,-2340,-11,13,-4
15123647,2260,2639,-2373,-15,17,-8
15126770,2273,2649,-2350,-11,11,-5
15129893,2217,2638,-2308,-12,24,-5
15133016,2262,2669,-2339,-11,9,-8
15136056,2249,2637,-2346,-13,24,-11
15139285,2228,2627,-2365,-11,8,-9
15142298,2241,2663,-2334,-11,22,-8
15145421,2220,2653,-2293,-11,8,-9
15148496,2238,2669,-2313,-12,24,-11
15151667,2239,2650,-2373,-9,11,-11
15154790,2263,2650,-2330,-8,23,-13
15157913,2240,2660,-2320,-9,7,-11
15160953,2265,2640,-2318,-7,22,-11
15164121,2239,2652,-2327,-12,4,-17
15167195,2236,2646,-2340,-7,25,-13
15170318,2248,2647,-2320,-12,7,-14
15173441,2265,2650,-2324,-10,23,-12
15176651,2239,2629,-2343,-10,7,-13
15179774,2257,2627,-2324,-5,21,-11
15182897,2247,2668,-2348,-10,6,-17
15186024,2251,2651,-2297,-7,19,-15
15189168,2248,2650,-2302,-10,7,-16
15192266,2261,2665,-2347,-5,18,-12
15195389,2235,2651,-2316,-13,4,-14
15198512,2240,2652,-2335,-4,10,-15
15201635,2238,2641,-2367,-10,18,-15
15204845,2250,2644,-2353,-7,10,-17
15207968,2227,2644,-2343,-12,17,-18
15211202,2284,2647,-2357,-7,7,-11
15214214,2258,2656,-2348,-13,17,-19
15217424,2231,2666,-2324,-10,8,-20
15220547,2238,2658,-2334,-9,23,-19
15223670,2238,2693,-2359,-10,8,-18
15226793,2241,2647,-2322,-11,20,-18
15230002,2263,2675,-2320,-9,8,-15
15233039,2260,2648,-2318,-11,21,-11
15236272,2258,2648,-2327,-10,7,-11
15239371,2227,2674,-2297,-6,24,-13
15242494,2262,2665,-2339,-7,7,-9
15245444,2247,2659,-2370,-8,25,-8
15248484,2253,2653,-2364,-9,6,-10
15251551,2266,2652,-2296,-9,25,-8
15254553,2249,2652,-2348,-12,9,-8
15257589,2247,2657,-2307,-9,24,-8
15260629,2252,2665,-2335,-11,9,-5
15263710,2240,2655,-2322,-12,23,-4
15266785,2267,2665,-2346,-7,12,-5
15269821,2268,2644,-2348,-11,25,-6
15272944,2258,2662,-2360,-13,6,0
15275893,2243,2653,-2389,-11,27,-5
15279016,2228,2660,-2348,-14,10,-5
15282139,2242,2658,-2332,-10,20,-3
15285262,2253,2657,-2311,-14,12,-7
15288410,2241,2639,-2328,-10,19,-3
15291508,2257,2672,-2326,-12,11,-6
15294631,2259,2659,-2313,-11,27,-4
15297754,2272,2638,-2331,-12,7,-8
15300791,2242,2651,-2320,-11,25,-6
15303913,2245,2654,-2340,-18,16,-6
15307037,2287,2652,-2367,-8,16,-7
15310073,2239,2668,-2335,-17,16,-6
15313220,2253,2652,-2291,-10,15,-3
15316319,2268,2643,-2332,-12,14,-10
15319528,2245,2650,-2330,-8,18,-6
15322565,2251,2654,-2321,-14,11,-8
15325688,2244,2659,-2305,-9,11,-7
15328724,2254,2664,-2357,-13,21,-5
15331847,2247,2659,-2354,-12,12,-10
15335057,2248,2640,-2320,-11,25,-10
15338290,2248,2666,-2329,-9,7,-10
15341303,2249,2632,-2311,-10,26,-10
15344512,2254,2660,-2337,-8,6,-11
15347549,2255,2674,-2343,-8,22,-12
15350672,2239,2644,-2354,-9,8,-14
15353743,2247,2650,-2294,-5,21,-10
15356831,2241,2669,-2359,-10,5,-18
15359954,2225,2665,-2334,-8,21,-16
15363125,2245,2639,-2316,-5,8,-20
15366113,2226,2653,-2324,-6,17,-19
15369236,2250,2642,-2310,-6,6,-16
15372272,2234,2662,-2352,-11,19,-18
15375482,2231,2663,-2355,-9,10,-22
15378605,2240,2661,-2358,-7,13,-20
15381728,2234,2647,-2327,-13,11,-22
15384938,2239,2644,-2329,-3,15,-20
15388085,2242,2667,-2348,-10,6,-21
15391184,2262,2651,-2348,-3,15,-23
15394307,2237,2660,-2329,-12,20,-18
15397517,2231,2648,-2362,-6,9,-19
15400553,2249,2656,-2354,-11,21,-16
15403763,2261,2652,-2337,-6,7,-19
15406799,2239,2651,-2342,-10,23,-15
15410009,2247,2671,-2347,-6,10,-15
15413156,2251,2644,-2357,-9,21,-12
15416255,2225,2677,-2342,-6,8,-12
15419291,2245,2651,-2327,-7,25,-6
15422327,2244,2648,-2337,-12,12,-8
15425450,2223,2644,-2357,-9,24,-5
15428487,2258,2660,-2339,-9,8,0
15431349,2244,2647,-2375,-10,24,-4
15434472,2257,2669,-2339,-12,7,0
15437445,2242,2661,-2312,-10,24,-6
15440545,2254,2670,-2320,-11,11,-2
15443668,2236,2673,-2340,-15,26,-1
15446791,2250,2645,-2336,-15,12,-2
15449914,2249,2678,-2341,-10,25,-1
15453037,2222,2653,-2288,-14,10,-4
15456194,2271,2632,-2323,-14,25,0
15459196,2262,2655,-2337,-17,11,-5
15462368,2230,2671,-2323,-9,29,-2
15465355,2239,2665,-2319,-17,5,-5
15468391,2221,2670,-2337,-12,28,-3
15471514,2250,2666,-2353,-13,8,-2
15474551,2258,2650,-2355,-12,25,-9
15477674,2228,2650,-2331,-13,9,-8
15480710,2266,2653,-2322,-8,21,-7
15483746,2264,2662,-2358,-13,10,-7
15486894,2243,2645,-2341,-7,19,-11
15489992,2253,2671,-2347,-13,9,-9
15493028,2244,2658,-2336,-8,22,-8
15496065,2245,2643,-2337,-9,10,-9
15499101,2263,2638,-2310,-8,22,-11
15502224,2258,2654,-2369,-12,8,-13
15505347,2255,2653,-2296,-2,19,-11
15508470,2251,2675,-2316,-13,13,-12
15511704,2252,2654,-2333,-5,14,-15
15514803,2231,2647,-2355,-12,12,-15
15518012,2247,2656,-2330,-5,15,-16
15521135,2269,2648,-2304,-11,14,-17
15524345,2242,2662,-2370,-3,11,-19
15527468,2257,2653,-2324,-12,17,-18
15530678,2250,2655,-2349,-7,8,-12
15533714,2260,2658,-2327,-10,17,-18
15536947,2258,2674,-2340,-7,10,-15
15540047,2259,2644,-2325,-12,11,-15
15543257,2240,2675,-2333,-12,10,-11
15546466,2255,2648,-2295,-11,29,-16
15549676,2239,2652,-2318,-8,9,-12
15552712,2238,2631,-2320,-10,24,-13
15555926,2230,2671,-2332,-10,6,-14
15559080,2260,2674,-2339,-11,26,-6
15562229,2231,2657,-2354,-12,8,-12
15565291,2233,2658,-2334,-9,21,-8
15568328,2233,2675,-2331,-8,7,-11
15571364,2244,2660,-2346,-6,27,-7
15574400,2250,2670,-2313,-12,6,-8
15577436,2275,2648,-2329,-11,23,-7
15580559,2248,2678,-2314,-12,9,-7
15583596,2269,2634,-2327,-8,28,-6
15586656,2273,2632,-2320,-11,6,-10
15589755,2258,2663,-2347,-9,23,-6
15592791,2243,2660,-2344,-10,6,-9
15595827,2248,2670,-2361,-11,23,-8
15598950,2255,2654,-2374,-14,8,-10
15602073,2243,2646,-2360,-7,22,-11
15605196,2269,2675,-2324,-12,10,-10
15608406,2247,2649,-2343,-7,20,-7
15611467,2242,2653,-2291,-10,11,-15
15614652,2231,2681,-2309,-8,20,-8
15617688,2240,2676,-2347,-8,9,-15
15620724,2258,2637,-2332,-9,13,-14
15623847,2222,2651,-2312,-13,13,-18
15627057,2259,2668,-2340,-11,11,-15
15630267,2249,2644,-2333,-12,12,-18
15633477,2254,2664,-2362,-8,15,-14
15636623,2267,2657,-2364,-13,21,-19
15639809,2235,2652,-2328,-9,6,-16
15642846,2231,2674,-2361,-9,19,-18
15645969,2247,2671,-2342,-4,8,-16
15649005,2234,2669,-2352,-14,23,-14
15652215,2236,2664,-2315,-4,7,-13
15655251,2248,2665,-2329,-13,19,-14
15658461,2255,2660,-2339,-7,7,-15
15661564,2247,2654,-2308,-10,28,-7
15664620,2266,2659,-2290,-8,6,-13
15667656,2223,2651,-2331,-6,26,-1
15670693,2221,2664,-2332,-8,7,-8
15673642,2244,2669,-2352,-10,23,-2
15676765,2250,2669,-2315,-5,8,-3
15679714,2252,2652,-2346,-10,24,-1
15682837,2261,2646,-2327,-9,11,-2
15685877,2258,2660,-2309,-11,27,-2
15689021,2230,2654,-2342,-10,11,3
15692033,2253,2661,-2324,-7,28,3
15694983,2247,2658,-2334,-8,8,2
15697845,2240,2650,-2356,-11,27,3
15700881,2252,2646,-2325,-13,13,5
15703918,2287,2644,-2339,-8,24,10
15706954,2253,2642,-2342,-15,14,4
15709990,2252,2656,-2321,-10,25,4
15713051,2255,2659,-2299,-12,8,-5
15716063,2251,2636,-2334,-13,22,-3
15719186,2225,2645,-2335,-18,11,-10
15722395,2255,2628,-2350,-9,12,-8
15725432,2271,2651,-2343,-17,10,-16
15728641,2260,2660,-2338,-11,17,-15
15731851,2230,2651,-2341,-15,14,-21
15735061,2268,2652,-2338,-11,12,-22
15738295,2241,2643,-2317,-11,19,-24
15741480,2229,2657,-2313,-10,8,-29
15744603,2243,2665,-2317,-13,19,-27
15747813,2250,2645,-2368,-4,7,-19
15750849,2256,2651,-2344,-12,17,-24
15754059,2228,2656,-2342,-6,3,-15
15757095,2250,2671,-2355,-2,23,-16
15760218,2240,2619,-2350,-5,4,-18
15763320,2233,2669,-2325,-8,21,-16
15766378,2267,2661,-2345,-6,4,-19
15769414,2229,2662,-2337,-5,19,-14
15772537,2247,2649,-2335,-7,9,-15
15775573,2256,2676,-2359,-6,23,-16
15778696,2241,2652,-2326,-10,9,-17
15781819,2236,2627,-2329,-6,18,-19
15784942,2245,2657,-2347,-8,6,-19
15788003,2236,2649,-2335,-9,19,-19
15791102,2256,2667,-2327,-11,6,-20
15794224,2250,2673,-2341,-9,21,-13
15797347,2233,2674,-2332,-14,11,-18
15800557,2252,2650,-2324,-7,19,-14
15803680,2255,2655,-2291,-14,13,-18
15806890,2263,2668,-2311,-10,19,-8
15810013,2246,2668,-2318,-16,10,-12
15813247,2256,2668,-2308,-10,22,-6
15816346,2233,2667,-2332,-14,12,-1
15819469,2232,2637,-2288,-10,13,0
15822505,2264,2667,-2338,-13,19,0
15825541,2237,2678,-2320,-7,16,6
15828491,2235,2658,-2346,-15,20,5
15831527,2234,2655,-2307,-7,15,2
15834477,2260,2638,-2306,-17,21,5
15837537,2257,2659,-2352,-8,14,3
15840462,2243,2662,-2378,-16,17,0
15843498,2244,2683,-2309,-11,15,1
15846535,2233,2660,-2345,-10,25,1
15849571,2247,2653,-2331,-13,9,-4
15852607,2260,2650,-2353,-14,25,-3
15855730,2258,2657,-2311,-9,10,-2
15858766,2298,2652,-2351,-12,24,-4
15861936,2262,2660,-2349,-10,7,-7
15864961,2254,2648,-2332,-11,25,-10
15868135,2249,2658,-2366,-11,12,-10
15871345,2254,2656,-2318,-5,24,-11
15874468,2241,2663,-2310,-8,8,-11
15877504,2252,2664,-2316,-7,23,-9
15880541,2236,2649,-2327,-8,4,-13
15883577,2251,2660,-2353,-6,21,-14
15886724,2252,2658,-2307,-6,6,-16
15889736,2269,2635,-2325,-2,22,-11
15892859,2244,2662,-2276,-12,5,-17
15895982,2242,2652,-2359,-4,13,-11
15899105,2268,2663,-2354,-10,11,-16
15902315,2257,2661,-2317,-4,17,-17
15905438,2265,2678,-2318,-9,10,-16
15908561,2268,2645,-2313,-7,16,-8
15911622,2269,2652,-2305,-12,13,-12
15914807,2233,2664,-2318,-7,9,-10
15917843,2256,2661,-2335,-13,19,-14
15921053,2264,2645,-2340,-9,8,-13
15924089,2250,2644,-2323,-17,20,-12
15927299,2260,2659,-2372,-9,7,-13
15930335,2259,2654,-2310,-14,22,-7
15933458,2254,2662,-2313,-13,10,-8
15936606,2275,2632,-2336,-16,22,-10
15939791,2245,2681,-2371,-15,6,-12
15942914,2230,2651,-2330,-11,20,-11
15946124,2262,2664,-2329,-14,7,-10
15949247,2246,2657,-2354,-11,23,-11
15952456,2266,2679,-2340,-13,8,-13
15955579,2247,2682,-2330,-8,24,-10
15958702,2244,2657,-2312,-14,8,-16
15961873,2243,2674,-2355,-7,17,-15
15964987,2236,2635,-2342,-11,5,-18
15968071,2252,2666,-2359,-6,17,-15
15971195,2249,2634,-2333,-11,6,-21
15974317,2255,2657,-2333,-4,18,-17
15977440,2239,2674,-2317,-10,11,-19
15980650,2268,2657,-2318,-3,13,-22
15983773,2262,2670,-2312,-10,9,-20
15986921,2234,2655,-2356,1,14,-18
15989932,2253,2661,-2300,-8,9,-14
15992969,2248,2657,-2334,-5,18,-12
15996092,2272,2644,-2310,-9,14,-9
15999128,2261,2661,-2327,-6,21,1
16002077,2266,2651,-2298,-10,11,0
16005114,2261,2657,-2354,-7,19,5
16008063,2262,2638,-2341,-11,12,5
16011124,2284,2650,-2313,-9,24,13
16014136,2281,2640,-2323,-15,14,16
16017259,2282,2661,-2312,-14,21,22
16020382,2259,2646,-2313,-17,25,23
16023505,2283,2655,-2323,-13,18,33
16026628,2246,2657,-2327,-23,22,27
16029751,2277,2645,-2322,-16,17,28
16032874,2291,2661,-2292,-21,21,25
16036000,2258,2658,-2332,-13,18,23
16039144,2258,2656,-2334,-23,23,20
16042243,2283,2652,-2326,-17,13,25
16045366,2277,2680,-2343,-21,23,19
16048489,2268,2640,-2290,-17,14,18
16051612,2261,2647,-2350,-21,22,9
16054648,2262,2635,-2328,-18,7,0
16057598,2261,2625,-2321,-20,16,-7
16060724,2245,2653,-2312,-12,1,-14
16063944,2302,2637,-2311,-9,11,-26
16067005,2264,2665,-2322,-11,-1,-38
16070176,2252,2631,-2324,-7,11,-45
16073299,2248,2658,-2308,-10,-7,-56
16076509,2236,2678,-2334,-8,8,-70
16079545,2246,2646,-2294,-5,-10,-79
16082755,2231,2626,-2334,0,-4,-92
16085806,2233,2647,-2292,-5,-9,-99
16088943,2239,2638,-2375,6,-5,-106
16092037,2228,2679,-2367,3,-19,-109
16095247,2190,2661,-2335,13,-9,-117
16098457,2214,2649,-2342,11,-18,-120
16101753,2171,2648,-2338,18,-19,-123
16105050,2191,2704,-2344,20,-14,-123
16108346,2152,2638,-2394,35,-19,-114
16111667,2137,2665,-2421,42,-12,-139
16114939,2162,2670,-2418,39,-23,-130
16118236,2143,2644,-2367,26,-10,-111
16121532,2207,2683,-2385,32,-17,-109
16124829,2196,2699,-2401,46,8,-106
16127952,2189,2673,-2358,31,1,-90
16130988,2184,2683,-2335,25,16,-63
16134111,2221,2666,-2313,14,1,-46
16137172,2206,2675,-2380,27,17,-33
16140270,2191,2673,-2366,21,3,-25
16143306,2189,2685,-2383,5,8,1
16146083,2197,2680,-2371,-10,1,6
16149032,2202,2688,-2358,-15,24,25
16152155,2233,2697,-2375,-23,20,34
16155278,2243,2681,-2346,-26,44,54
16158401,2236,2693,-2343,-38,41,75
16161571,2219,2685,-2378,-38,53,90
16164647,2196,2683,-2367,-49,48,99
16167805,2240,2672,-2324,-51,57,120
16170980,2263,2700,-2325,-64,52,129
16174189,2286,2670,-2312,-63,56,149
16177399,2274,2674,-2325,-71,69,168
16180609,2261,2655,-2337,-67,62,175
16183819,2257,2666,-2325,-70,68,180
16187053,2278,2661,-2314,-66,51,183
16190238,2294,2662,-2280,-68,65,185
16193448,2307,2655,-2314,-70,51,179
16196658,2326,2644,-2296,-68,69,176
16199867,2327,2618,-2272,-68,53,164
16203077,2306,2620,-2260,-56,63,148
16206287,2335,2606,-2297,-55,41,130
16209497,2324,2623,-2277,-45,46,114
16212731,2336,2623,-2257,-42,25,93
16215829,2353,2624,-2289,-34,28,63
16218952,2336,2616,-2283,-36,21,45
16222076,2356,2616,-2318,-25,25,25
16225198,2322,2634,-2302,-24,12,-3
16228321,2314,2613,-2312,-14,15,-27
16231531,2294,2614,-2327,-11,-2,-54
16234741,2293,2624,-2317,5,-14,-81
16237888,2312,2608,-2286,8,-12,-101
16241074,2319,2633,-2333,18,-26,-120
16244370,2328,2611,-2317,21,-21,-137
16247667,2282,2629,-2319,35,-33,-162
16250963,2261,2614,-2321,39,-23,-185
16254260,2247,2620,-2319,44,-42,-193
16257556,2231,2644,-2349,53,-30,-203
16260856,2217,2650,-2413,60,-54,-219
16264196,2211,2665,-2378,67,-40,-233
16267449,2191,2641,-2398,60,-52,-238
16270777,2223,2678,-2376,59,-50,-235
16274039,2229,2662,-2329,53,-38,-236
16277335,2188,2646,-2351,60,-34,-233
16280632,2173,2668,-2346,50,-23,-219
16283928,2170,2677,-2357,52,-35,-204
16287249,2141,2655,-2347,43,-21,-191
16290521,2169,2697,-2399,35,-30,-168
16293818,2131,2683,-2431,31,-10,-144
16297114,2159,2723,-2368,18,-16,-122
16300411,2115,2705,-2379,10,4,-89
16303447,2145,2701,-2341,-3,6,-67
16306483,2147,2703,-2397,-2,18,-35
16309606,2155,2702,-2376,-9,12,-15
16312754,2130,2718,-2387,-16,27,14
16315852,2192,2720,-2355,-28,25,36
16318975,2162,2707,-2337,-32,41,67
16322098,2194,2733,-2326,-40,45,91
16325221,2191,2691,-2324,-49,54,125
16328431,2210,2679,-2333,-57,65,143
16331641,2187,2695,-2339,-56,58,164
16334850,2203,2675,-2316,-67,64,179
16338085,2233,2664,-2349,-69,57,195
16341270,2241,2702,-2337,-73,76,208
16344480,2247,2663,-2329,-74,63,216
16347689,2256,2652,-2327,-79,82,221
16350899,2279,2654,-2288,-77,66,220
16354109,2263,2651,-2301,-72,76,211
16357319,2289,2660,-2311,-74,61,203
16360532,2272,2640,-2299,-71,66,197
16363785,2312,2644,-2294,-69,57,184
16366948,2359,2663,-2310,-57,56,169
16370158,2304,2638,-2260,-62,53,151
16373402,2321,2622,-2319,-49,51,131
16376577,2314,2606,-2326,-48,40,114
16379787,2313,2609,-2346,-37,28,84
16382910,2320,2627,-2282,-35,36,65
16386057,2339,2635,-2303,-22,18,49
16389156,2313,2633,-2300,-19,29,27
16392279,2328,2599,-2271,-6,6,2
16395142,2337,2635,-2275,0,14,-18
16398178,2346,2617,-2292,10,0,-41
16401214,2301,2609,-2342,12,-4,-67
16404337,2297,2624,-2292,24,-14,-80
16407547,2305,2595,-2311,23,-12,-105
16410847,2287,2636,-2335,30,-29,-124
16414164,2288,2618,-2324,39,-9,-143
16417350,2293,2649,-2339,40,-32,-158
16420646,2275,2626,-2355,46,-29,-175
16423943,2275,2631,-2365,43,-38,-189
16427239,2239,2616,-2331,51,-33,-195
16430536,2226,2635,-2375,44,-31,-205
16433832,2241,2651,-2377,48,-39,-204
16437153,2218,2661,-2371,44,-30,-207
16440425,2214,2652,-2365,45,-38,-201
16443722,2204,2662,-2356,44,-26,-198
16447018,2196,2670,-2366,37,-37,-192
16450315,2197,2656,-2350,35,-17,-179
16453611,2215,2666,-2395,25,-28,-161
16456908,2190,2669,-2333,30,-11,-147
16460204,2190,2666,-2408,20,-19,-129
16463548,2161,2683,-2367,14,-9,-102
16466710,2174,2699,-2388,4,0,-91
16469660,2168,2712,-2362,5,2,-67
16472609,2181,2685,-2368,-9,10,-51
16475767,2185,2682,-2360,-5,11,-29
16478855,2184,2703,-2351,-22,20,-8
16481979,2182,2711,-2346,-15,23,11
16485101,2180,2694,-2349,-31,41,35
16488249,2205,2709,-2319,-32,26,56
16491347,2176,2694,-2343,-43,47,66
16494470,2167,2681,-2349,-43,34,86
16497594,2230,2704,-2337,-54,54,93
16500716,2232,2702,-2316,-53,43,111
16503926,2192,2696,-2304,-59,58,119
16507136,2211,2658,-2336,-58,49,131
16510346,2233,2674,-2324,-62,64,140
16513580,2243,2668,-2296,-63,48,140
16516765,2238,2664,-2296,-63,63,147
16519975,2257,2664,-2278,-69,56,145
16523185,2264,2656,-2266,-60,56,146
16526394,2296,2633,-2320,-62,54,145
16529604,2253,2661,-2286,-53,54,137
16532814,2273,2621,-2291,-52,57,128
16536048,2258,2630,-2277,-50,39,115
16539233,2290,2658,-2330,-46,49,109
16542443,2297,2624,-2281,-37,34,97
16545566,2301,2643,-2292,-36,44,84
16548689,2309,2644,-2269,-26,24,68
16551812,2326,2636,-2310,-21,36,52
16554935,2296,2648,-2279,-14,15,40
16558058,2310,2623,-2314,-9,25,24
16561154,2314,2638,-2311,-6,9,9
16563957,2320,2627,-2316,2,19,-8
16566907,2300,2639,-2336,6,-1,-21
16569943,2315,2632,-2306,13,14,-37
16573066,2296,2630,-2311,12,-8,-53
16576224,2299,2643,-2337,22,1,-62
16579225,2288,2638,-2316,21,-13,-77
16582435,2308,2627,-2320,24,-2,-86
16585561,2306,2640,-2320,27,-20,-105
16588879,2289,2614,-2358,33,-8,-110
16592064,2275,2661,-2361,30,-24,-119
16595361,2268,2636,-2346,32,-12,-127
16598657,2262,2635,-2355,31,-22,-133
16601954,2280,2641,-2356,38,-16,-135
16605250,2230,2648,-2371,27,-21,-134
16608547,2252,2650,-2334,30,-20,-132
16611868,2234,2653,-2367,24,-9,-127
16615053,2231,2670,-2344,30,-19,-125
16618349,2223,2662,-2364,28,-7,-116
16621559,2226,2649,-2378,23,-18,-111
16624856,2206,2654,-2378,22,-3,-107
16628065,2203,2667,-2420,11,-14,-99
16631275,2211,2667,-2362,9,-4,-78
16634311,2231,2646,-2334,1,4,-78
16637285,2216,2676,-2352,6,8,-60
16640210,2209,2681,-2350,-7,9,-46
16643247,2165,2688,-2385,-5,10,-34
16646370,2163,2606,-2350,-16,9,-31
16649493,2194,2590,-2232,-27,21,-25
16652702,2270,2737,-2371,-35,3,-2
16655739,2274,2760,-2460,-6,30,2
16658688,2230,2762,-2402,-24,35,22
16661858,2229,2675,-2361,-48,38,40
16664934,2212,2691,-2353,-58,37,55
16668057,2206,2610,-2303,-47,43,55
16671180,2189,2613,-2242,-55,46,55
16674303,2242,2711,-2344,-46,32,71
16677461,2217,2762,-2337,-42,39,88
16680549,2277,2733,-2331,-38,27,112
16683759,2218,2623,-2277,-50,45,113
16686993,2224,2617,-2299,-44,28,106
16690179,2266,2636,-2301,-39,51,96
16693301,2271,2659,-2339,-37,41,85
16696424,2225,2662,-2325,-47,51,84
16699547,2286,2690,-2350,-43,34,86
16702671,2266,2650,-2294,-43,45,87
16705793,2239,2624,-2267,-30,25,72
16708916,2256,2613,-2285,-21,35,63
16712064,2264,2639,-2319,-18,13,47
16715162,2262,2652,-2308,-11,25,38
16718285,2262,2636,-2337,-17,6,24
16721322,2288,2657,-2316,-11,23,10
16724445,2301,2673,-2348,-9,10,-6
16727481,2286,2650,-2312,-6,24,-16
16730604,2272,2650,-2308,-7,7,-33
16733640,2273,2616,-2313,3,10,-40
16736701,2271,2637,-2310,6,-7,-57
16739713,2232,2631,-2311,17,-3,-65
16742836,2247,2619,-2286,15,-10,-78
16746045,2285,2667,-2369,26,-5,-85
16749168,2250,2671,-2363,19,-12,-91
16752378,2277,2652,-2356,20,-12,-90
16755588,2237,2628,-2374,15,2,-105
16758711,2245,2639,-2348,17,-11,-103
16762054,2226,2631,-2344,14,3,-114
16765130,2220,2642,-2335,21,-15,-109
16768427,2206,2674,-2383,25,-5,-102
16771637,2241,2689,-2377,20,-18,-94
16774846,2244,2668,-2351,22,1,-88
16777918,2225,2667,-2308,18,-13,-83
16781093,2209,2662,-2376,18,5,-79
16784129,2194,2676,-2379,8,-4,-75
16787189,2205,2664,-2384,6,11,-62
16790201,2213,2636,-2363,-3,5,-53
16793237,2192,2651,-2318,4,14,-38
16796274,2215,2659,-2309,-3,8,-28
16799310,2237,2695,-2325,-5,20,-8
16802346,2223,2686,-2367,-9,8,0
16805209,2235,2668,-2347,-10,23,13
16808332,2233,2653,-2362,-16,19,18
16811479,2246,2683,-2369,-18,30,33
16814578,2222,2674,-2343,-24,22,38
16817701,2229,2695,-2355,-27,41,50
16820824,2226,2682,-2355,-33,28,58
16823947,2208,2663,-2348,-29,41,69
16827070,2237,2652,-2300,-41,39,75
16830193,2266,2665,-2320,-34,36,80
16833316,2250,2664,-2315,-39,36,79
16836464,2250,2664,-2363,-37,37,86
16839562,2260,2660,-2324,-45,39,85
16842685,2269,2651,-2296,-40,38,87
16845808,2276,2648,-2317,-43,47,81
16848931,2280,2652,-2354,-41,33,79
16852054,2271,2660,-2312,-41,43,76
16855177,2247,2631,-2315,-39,32,69
16858300,2303,2649,-2321,-36,43,61
16861470,2266,2638,-2308,-34,24,56
16864546,2282,2616,-2277,-31,36,47
16867669,2282,2651,-2350,-30,17,35
16870792,2273,2640,-2324,-21,26,25
16873915,2291,2642,-2341,-23,16,14
16877038,2304,2613,-2296,-16,22,1
16880109,2288,2640,-2326,-12,8,-16
16883197,2302,2632,-2330,-8,17,-18
16886345,2275,2642,-2328,-10,0,-34
16889443,2255,2634,-2295,-3,12,-44
16892566,2244,2645,-2335,-5,-1,-63
16895689,2274,2657,-2333,8,0,-70
16898639,2252,2644,-2351,3,-9,-81
16901675,2246,2661,-2316,13,-5,-87
16904798,2263,2636,-2325,9,-12,-102
16908008,2236,2654,-2335,19,-6,-107
16911242,2241,2657,-2303,11,-12,-113
16914514,2203,2643,-2333,19,-16,-117
16917810,2213,2665,-2332,16,-4,-122
16921020,2210,2668,-2311,21,-18,-118
16924317,2220,2675,-2331,27,-6,-119
16927527,2219,2659,-2357,22,-20,-116
16930823,2215,2682,-2357,23,-5,-112
16934033,2201,2681,-2328,24,-12,-106
16937354,2225,2649,-2344,23,-8,-94
16940452,2193,2696,-2352,16,-1,-89
16943575,2225,2658,-2346,16,-3,-75
16946698,2214,2667,-2367,9,3,-65
16949648,2184,2659,-2343,14,4,-53
16952684,2199,2670,-2387,5,7,-42
16955633,2197,2697,-2329,9,14,-30
16958670,2205,2680,-2334,-1,15,-19
16961841,2192,2667,-2369,-1,17,-3
16964829,2231,2668,-2376,-11,17,2
16967865,2189,2649,-2343,-9,27,18
16970901,2220,2688,-2300,-21,24,29
16974024,2207,2665,-2305,-22,26,45
16977148,2212,2683,-2358,-29,38,56
16980305,2246,2670,-2357,-28,32,62
16983393,2228,2665,-2344,-36,43,73
16986541,2261,2672,-2338,-32,30,80
16989640,2225,2678,-2320,-43,48,84
16992762,2242,2674,-2337,-36,36,93
16995885,2252,2653,-2313,-44,50,98
16999008,2255,2641,-2304,-41,39,102
17002218,2270,2637,-2290,-45,52,104
17005428,2266,2633,-2341,-43,37,103
17008638,2293,2657,-2300,-44,52,100
17011872,2257,2639,-2328,-41,34,100
17015057,2277,2634,-2352,-36,45,93
17018180,2284,2623,-2314,-36,33,89
17021303,2312,2632,-2305,-33,43,87
17024426,2285,2620,-2336,-34,27,76
17027549,2303,2647,-2336,-29,38,66
17030672,2311,2659,-2325,-31,28,53
17033795,2297,2657,-2337,-20,23,42
17036943,2304,2616,-2338,-24,19,31
17040041,2304,2632,-2335,-13,20,12
17043164,2299,2621,-2334,-17,14,2
17046200,2294,2632,-2353,-6,17,-12
17049324,2292,2613,-2318,-10,5,-22
17052446,2298,2628,-2300,-4,10,-34
17055569,2286,2638,-2322,-4,9,-55
17058606,2271,2624,-2324,-1,-5,-62
17061830,2246,2633,-2352,1,6,-75
17064678,2284,2633,-2336,6,-11,-77
17067801,2269,2637,-2333,6,-4,-94
17070837,2245,2640,-2299,13,-8,-99
17073961,2272,2633,-2335,9,-5,-108
17077083,2252,2651,-2324,15,-15,-110
17080419,2244,2652,-2332,16,-3,-118
17083590,2247,2644,-2328,16,-23,-116
17086911,2215,2664,-2318,20,-2,-119
17090096,2235,2677,-2356,19,-19,-121
17093392,2231,2683,-2352,18,-5,-119
17096602,2213,2664,-2344,17,-17,-116
17099899,2213,2693,-2332,18,-1,-111
17103108,2200,2692,-2369,13,-15,-108
17106405,2198,2667,-2330,16,-6,-100
17109615,2201,2676,-2349,10,-6,-94
17112762,2225,2664,-2372,9,0,-81
17115687,2192,2683,-2334,5,-2,-74
17118724,2214,2667,-2365,8,7,-66
17121673,2196,2683,-2335,-2,0,-60
17124709,2173,2700,-2312,3,10,-44
17127746,2197,2671,-2370,-9,5,-38
17130782,2211,2691,-2337,-5,14,-26
17133905,2211,2665,-2363,-12,9,-15
17137052,2212,2647,-2362,-11,16,0
17140064,2211,2700,-2331,-20,25,7
17143100,2222,2673,-2355,-19,20,18
17146223,2205,2670,-2329,-26,26,28
17149346,2219,2692,-2346,-23,28,41
17152469,2193,2669,-2303,-32,32,46
17155592,2225,2678,-2329,-28,32,54
17158715,2193,2675,-2333,-32,36,60
17161885,2246,2675,-2309,-32,27,66
17164961,2247,2679,-2317,-31,42,77
17168084,2222,2661,-2323,-34,29,77
17171207,2239,2691,-2328,-31,47,83
17174330,2258,2654,-2328,-34,31,87
17177453,2215,2654,-2340,-29,46,85
17180611,2271,2650,-2312,-34,32,85
17183699,2266,2655,-2298,-28,38,87
17186847,2254,2635,-2333,-32,34,81
17189945,2267,2629,-2343,-25,33,77
17193068,2281,2638,-2341,-31,35,71
17196191,2275,2655,-2284,-22,33,68
17199314,2281,2649,-2352,-28,29,60
17202437,2275,2636,-2333,-19,26,55
17205560,2284,2641,-2285,-19,34,45
17208683,2282,2660,-2371,-18,16,35
17211831,2297,2638,-2302,-17,30,28
17214929,2276,2665,-2330,-16,14,17
17218052,2297,2636,-2357,-14,25,7
17221088,2290,2635,-2313,-8,13,2
17224038,2296,2638,-2321,-10,20,-10
17227248,2304,2649,-2313,-5,5,-15
17230284,2290,2645,-2340,-7,12,-28
17233407,2289,2636,-2370,-1,3,-32
17236468,2282,2647,-2339,0,12,-43
17239479,2292,2633,-2352,0,-6,-51
17242516,2279,2630,-2339,3,9,-53
17245465,2301,2635,-2370,5,-3,-61
17248501,2284,2663,-2342,6,8,-65
17251451,2262,2627,-2339,6,-10,-69
17254574,2256,2653,-2362,8,9,-72
17257523,2249,2636,-2346,7,-11,-78
17260650,2259,2652,-2318,7,7,-79
17263643,2256,2660,-2365,7,-10,-82
17266719,2244,2652,-2377,6,4,-84
17269668,2244,2653,-2320,5,-8,-81
17272705,2244,2649,-2326,6,9,-82
17275654,2245,2670,-2329,4,-9,-81
17278690,2226,2664,-2317,2,8,-79
17281675,2244,2644,-2364,3,-3,-79
17284676,2201,2668,-2344,0,10,-73
17287737,2206,2664,-2321,-1,-2,-71
17290835,2240,2677,-2323,-5,11,-66
17293958,2234,2671,-2322,-6,1,-62
17296995,2216,2672,-2369,-4,14,-52
17300118,2232,2675,-2328,-9,2,-49
17303154,2208,2678,-2361,-7,15,-41
17306277,2210,2679,-2323,-12,7,-35
17309400,2192,2674,-2317,-14,23,-28
17312634,2220,2686,-2352,-14,8,-25
17315733,2193,2674,-2354,-16,23,-16
17318942,2188,2671,-2330,-21,8,-8
17321979,2185,2668,-2341,-14,29,5
17325015,2201,2660,-2316,-19,15,5
17328051,2221,2681,-2330,-17,30,17
17331174,2214,2682,-2326,-21,17,18
17334297,2215,2685,-2309,-19,34,22
17337445,2246,2678,-2310,-23,17,30
17340543,2233,2668,-2324,-16,32,30
17343666,2225,2671,-2299,-26,25,37
17346789,2249,2686,-2326,-13,29,40
17349912,2225,2672,-2314,-25,27,41
17353035,2231,2665,-2315,-21,28,46
17356158,2231,2653,-2291,-24,26,45
17359281,2254,2675,-2328,-19,25,42
17362451,2249,2623,-2300,-23,29,42
17365527,2267,2620,-2298,-17,21,40
17368650,2265,2662,-2339,-20,32,39
17371773,2271,2664,-2332,-16,20,38
17374896,2265,2648,-2336,-20,35,39
17378019,2240,2656,-2307,-14,20,28
17381142,2267,2632,-2347,-17,32,31
17384300,2252,2646,-2324,-13,15,26
17387413,2266,2632,-2343,-8,31,22
17390425,2269,2636,-2338,-12,13,19
17393548,2275,2643,-2356,-7,27,13
17396584,2269,2645,-2326,-9,10,9
17399533,2273,2660,-2323,-6,27,6
17402483,2265,2655,-2329,-6,7,0
17405346,2267,2645,-2324,-5,22,-4
17408382,2262,2642,-2316,-2,7,-13
17411443,2279,2633,-2331,-3,21,-15
17414541,2270,2642,-2370,-2,3,-22
17417577,2263,2662,-2346,-2,18,-26
17420700,2278,2617,-2370,-1,4,-30
17423737,2277,2657,-2318,-1,18,-32
17426859,2262,2664,-2325,-1,1,-39
17429896,2243,2658,-2311,-2,15,-44
17433019,2244,2628,-2330,-5,1,-47
17436079,2260,2631,-2366,-1,11,-50
17439178,2244,2651,-2362,-3,-1,-54
17442301,2255,2641,-2350,0,9,-50
17445250,2247,2651,-2332,-4,-1,-51
17448373,2236,2641,-2348,5,12,-49
17451410,2278,2661,-2361,-5,1,-54
17454446,2237,2654,-2361,2,10,-50
17457482,2232,2656,-2345,-4,-2,-51
17460609,2230,2655,-2333,-1,14,-52
17463775,2216,2661,-2346,-6,2,-44
17466764,2259,2664,-2359,-2,17,-42
17469887,2220,2667,-2351,-11,10,-41
17473097,2226,2686,-2336,-6,6,-36
17476133,2251,2660,-2329,-11,13,-35
17479343,2216,2686,-2364,-9,10,-28
17482466,2220,2660,-2358,-16,14,-25
17485711,2253,2655,-2359,-12,6,-20
17488823,2248,2656,-2365,-15,25,-22
17492009,2216,2656,-2311,-16,7,-15
17495132,2230,2635,-2311,-20,25,-10
17498341,2244,2667,-2320,-19,10,-9
17501464,2241,2681,-2327,-22,26,-6
17504587,2215,2655,-2318,-22,11,-9
17507710,2230,2677,-2323,-18,26,-3
17510837,2223,2674,-2294,-22,12,2
17513894,2231,2657,-2322,-21,27,4
17516906,2244,2664,-2329,-21,15,5
17519942,2210,2672,-2284,-20,28,9
17522978,2224,2659,-2299,-19,16,9
17526015,2231,2649,-2332,-20,28,15
17529138,2239,2685,-2354,-20,17,15
17532261,2231,2684,-2316,-17,31,17
17535384,2242,2649,-2300,-18,15,15
17538531,2242,2697,-2308,-12,21,18
17541630,2230,2675,-2351,-16,17,15
17544753,2231,2675,-2349,-10,19,16
17547876,2230,2669,-2338,-12,15,16
17550999,2254,2648,-2352,-7,22,13
17554035,2261,2629,-2350,-13,12,10
17557158,2233,2663,-2329,-4,18,11
17560194,2229,2641,-2343,-9,16,4
17563203,2228,2671,-2309,-2,14,1
17566093,2272,2686,-2350,-5,11,-1
17569129,2262,2647,-2354,0,16,-6
17572079,2248,2635,-2352,-1,11,-9
17575115,2245,2640,-2342,4,16,-4
17578065,2242,2652,-2394,-1,8,-12
17581101,2239,2658,-2332,4,15,-14
17584137,2278,2623,-2310,0,16,-16
17587216,2256,2658,-2367,1,8,-16
17590123,2252,2671,-2373,1,14,-17
17593159,2244,2634,-2335,7,6,-19
17596109,2251,2673,-2361,-3,16,-18
17599232,2265,2634,-2360,2,8,-24
17602181,2254,2650,-2349,-2,14,-20
17605304,2274,2644,-2384,0,7,-22
17608254,2241,2645,-2350,-3,14,-21
17611401,2267,2644,-2352,0,10,-16
17614413,2261,2641,-2334,-4,20,-16
17617536,2236,2646,-2369,-5,9,-15
17620572,2245,2651,-2346,-8,20,-14
17623695,2260,2681,-2362,-7,11,-14
17626818,2298,2657,-2347,-9,22,-11
17629941,2252,2660,-2337,-11,9,-7
17632977,2256,2658,-2298,-13,30,-1
17636125,2282,2645,-2345,-14,12,1
17639137,2267,2642,-2350,-18,24,6
17642173,2269,2681,-2329,-17,12,6
17645209,2260,2646,-2349,-22,30,10
17648332,2256,2660,-2314,-21,15,10
17651455,2260,2635,-2347,-23,27,12
17654578,2259,2651,-2303,-23,11,9
17657615,2280,2640,-2326,-23,28,15
17660741,2275,2650,-2320,-26,16,9
17663822,2275,2639,-2305,-21,26,11
17666897,2263,2670,-2314,-30,16,5
17669933,2257,2645,-2326,-23,26,10
17673056,2257,2648,-2296,-30,14,0
17676092,2274,2655,-2335,-25,26,0
17679128,2277,2633,-2323,-28,14,-6
17682251,2248,2647,-2340,-23,24,-6
17685374,2258,2643,-2252,-25,12,-13
17688631,2279,2652,-2285,-19,15,-17
17691794,2263,2658,-2305,-25,18,-22
17695004,2243,2663,-2270,-15,8,-26
17698127,2273,2665,-2304,-23,12,-32
17701337,2231,2669,-2326,-13,10,-33
17704546,2245,2657,-2321,-11,19,-40
17707756,2242,2665,-2358,-9,3,-46
17710796,2228,2663,-2313,-10,12,-44
17714026,2252,2695,-2317,-1,3,-45
17717038,2218,2670,-2315,-6,10,-40
17720161,2223,2625,-2275,2,0,-51
17723111,2237,2656,-2355,1,6,-50
17726060,2220,2678,-2331,10,6,-48
17729096,2222,2675,-2342,3,9,-45
17732046,2256,2657,-2296,11,4,-42
17735082,2236,2641,-2337,10,4,-42
17738143,2224,2674,-2301,19,3,-36
17741155,2225,2649,-2333,14,12,-33
17744278,2226,2626,-2339,12,-1,-27
17747401,2237,2614,-2320,14,13,-26
17750524,2260,2668,-2330,15,0,-23
17753560,2255,2651,-2346,14,23,-18
17756683,2257,2698,-2365,9,5,-7
17759546,2275,2714,-2385,3,25,2
17762457,2266,2684,-2379,3,9,4
17765184,2242,2667,-2362,-7,28,5
17768134,2238,2636,-2329,-10,10,4
17771170,2237,2626,-2340,-15,28,5
17774206,2246,2635,-2353,-16,8,7
17777156,2248,2659,-2343,-19,29,10
17780279,2250,2631,-2319,-17,16,13
17783402,2251,2659,-2331,-25,25,13
17786548,2231,2665,-2352,-26,15,16
17789683,2255,2639,-2345,-26,31,13
17792771,2225,2652,-2381,-30,16,11
17795894,2264,2635,-2340,-30,31,12
17799017,2242,2661,-2339,-31,18,8
17802053,2277,2672,-2343,-26,35,11
17805176,2243,2676,-2354,-30,18,10
17808299,2259,2703,-2319,-26,32,15
17811447,2238,2685,-2367,-25,15,17
17814545,2220,2634,-2291,-19,26,14
17817668,2266,2636,-2367,-23,18,10
17820791,2217,2619,-2314,-17,22,12
17823914,2269,2654,-2360,-17,14,12
17827037,2251,2642,-2332,-11,25,9
17830073,2235,2667,-2342,-12,14,2
17833110,2254,2652,-2320,-3,23,3
17836084,2271,2640,-2338,-7,8,1
17838922,2255,2638,-2362,-1,21,-3
17841958,2249,2630,-2298,-7,4,-15
17844994,2271,2647,-2347,3,21,-16
17848031,2251,2667,-2315,-5,3,-25
17851067,2258,2664,-2348,0,12,-27
17854103,2250,2656,-2349,-4,2,-34
17857139,2223,2657,-2305,1,11,-37
17860176,2263,2633,-2302,-5,0,-49
17863260,2244,2642,-2323,-3,13,-48
17866335,2206,2636,-2327,-8,5,-55
17869371,2261,2628,-2303,-3,5,-59
17872407,2257,2656,-2319,-11,6,-63
17875530,2227,2658,-2317,1,7,-61
17878480,2248,2667,-2358,-7,5,-60
17881516,2253,2665,-2315,-3,7,-57
17884552,2210,2638,-2327,-11,1,-54
17887699,2214,2667,-2328,-5,10,-53
17890833,2212,2651,-2322,-10,3,-49
17893921,2226,2668,-2319,-6,16,-45
17897044,2230,2658,-2283,-13,7,-40
17900167,2240,2674,-2335,-5,10,-28
17903290,2213,2686,-2281,-11,19,-24
17906500,2218,2693,-2310,-7,11,-16
17909623,2242,2672,-2362,-13,20,-11
17912857,2198,2671,-2329,-10,11,-2
17915956,2208,2684,-2329,-18,23,4
17918992,2235,2687,-2337,-8,13,8
17921942,2233,2673,-2300,-10,30,13
17925065,2236,2677,-2324,-14,12,17
17928188,2218,2671,-2306,-10,34,25
17931311,2240,2656,-2316,-13,16,25
17934434,2242,2681,-2307,-15,32,30
17937581,2220,2672,-2342,-16,17,33
17940680,2234,2669,-2362,-14,34,30
17943803,2229,2663,-2310,-19,15,28
17946926,2234,2651,-2340,-13,28,30
17950049,2220,2644,-2315,-19,15,29
17953172,2235,2652,-2311,-11,28,26
17956295,2249,2659,-2311,-18,13,22
17959418,2263,2652,-2300,-9,27,23
17962503,2237,2652,-2348,-19,13,19
17965577,2239,2647,-2331,-6,24,14
17968613,2266,2660,-2303,-12,8,10
17971649,2275,2637,-2316,-6,18,5
17974599,2255,2669,-2357,-10,15,-2
17977722,2266,2671,-2403,-4,15,4
17980671,2274,2641,-2321,-12,16,-2
17983794,2275,2668,-2338,-3,17,-5
17986854,2270,2648,-2291,-5,13,-7
17989867,2248,2637,-2348,-1,17,-9
17992938,2252,2657,-2356,-6,7,-13
17995939,2249,2661,-2313,3,15,-9
17998889,2251,2671,-2335,-5,7,-12
18001925,2275,2672,-2318,3,13,-13
18004961,2257,2669,-2344,-5,5,-15
18007998,2247,2676,-2293,0,18,-8
18010972,2271,2654,-2351,-5,7,-14
18013983,2265,2649,-2302,0,17,-10
18017020,2266,2664,-2356,-7,9,-15
18020056,2264,2642,-2343,-1,18,-14
18023179,2276,2646,-2355,-6,8,-15
18026215,2267,2659,-2309,-4,13,-13
18029338,2267,2651,-2332,-12,17,-17
18032548,2263,2651,-2342,-5,6,-15
18035588,2270,2656,-2335,-12,14,-17
18038818,2249,2659,-2317,-11,7,-23
18041917,2251,2679,-2349,-17,17,-23
18045127,2254,2632,-2279,-15,3,-30
18048250,2256,2655,-2333,-14,19,-33
18051459,2233,2630,-2359,-16,1,-38
18054582,2226,2660,-2283,-14,19,-41
18057792,2242,2648,-2345,-15,2,-45
18061018,2240,2660,-2306,-12,11,-46
18064125,2240,2695,-2316,-15,2,-52
18067248,2215,2672,-2332,-10,8,-50
18070371,2236,2653,-2323,-13,3,-54
18073494,2226,2658,-2329,-8,13,-52
18076617,2215,2677,-2339,-12,1,-57
18079740,2213,2644,-2343,-5,11,-58
18082863,2195,2675,-2343,-6,-2,-58
18086009,2215,2678,-2332,1,4,-49
18088936,2211,2671,-2319,-6,5,-50
18091972,2217,2673,-2330,4,8,-43
18094960,2223,2660,-2327,0,10,-51
18097957,2207,2666,-2344,4,8,-41
18100907,2198,2683,-2309,-3,10,-39
18104030,2208,2674,-2305,2,8,-30
18106979,2200,2672,-2344,-3,14,-29
18110102,2205,2696,-2321,8,9,-26
18113076,2202,2672,-2356,-3,14,-24
18116175,2179,2666,-2377,-1,9,-20
18119211,2224,2686,-2338,-7,10,-16
18122334,2218,2668,-2314,-6,16,-13
18125457,2215,2645,-2265,-17,19,-9
18128580,2228,2655,-2331,-8,14,-3
18131616,2256,2677,-2341,-10,30,4
18134653,2226,2672,-2316,-10,17,7
18137713,2227,2668,-2339,-11,30,22
18140812,2240,2667,-2351,-10,21,28
18143935,2237,2661,-2337,-16,32,37
18147058,2267,2673,-2311,-10,25,44
18150181,2248,2665,-2306,-20,37,52
18153304,2248,2661,-2336,-14,33,61
18156427,2269,2665,-2314,-15,47,71
18159550,2267,2674,-2328,-16,28,79
18162721,2281,2673,-2327,-15,42,86
18165796,2269,2657,-2371,-18,27,93
18168919,2290,2637,-2315,-22,44,93
18172042,2291,2660,-2332,-24,26,89
18175165,2301,2659,-2289,-28,46,86
18178288,2285,2636,-2328,-30,29,79
18181411,2302,2647,-2329,-29,40,75
18184534,2317,2627,-2335,-35,28,66
18187680,2296,2643,-2315,-30,37,59
18190780,2277,2625,-2335,-36,21,52
18193903,2321,2636,-2323,-28,37,39
18197061,2288,2637,-2292,-37,19,31
18200149,2285,2619,-2337,-32,20,16
18203272,2283,2621,-2324,-34,17,1
18206308,2269,2626,-2370,-24,18,-7
18209431,2292,2622,-2374,-29,10,-19
18212665,2301,2636,-2299,-17,14,-25
18215851,2289,2623,-2333,-23,6,-38
18218974,2296,2637,-2343,-10,9,-45
18222097,2289,2627,-2326,-10,11,-55
18225306,2271,2656,-2343,0,-3,-65
18228343,2269,2655,-2359,0,5,-76
18231292,2237,2644,-2314,11,-12,-78
18234502,2254,2645,-2348,6,1,-92
18237476,2254,2659,-2337,15,-10,-92
18240661,2226,2627,-2307,12,-6,-100
18243871,2241,2648,-2353,18,-15,-108
18247167,2218,2647,-2375,22,-4,-111
18250377,2204,2645,-2359,20,-16,-118
18253674,2240,2691,-2344,24,-7,-121
18256883,2243,2679,-2370,19,-14,-119
18260180,2216,2661,-2370,21,-8,-111
18263438,2181,2660,-2326,13,-12,-111
18266686,2227,2680,-2335,17,-5,-103
18269896,2210,2677,-2356,11,-2,-98
18273019,2220,2676,-2372,14,-5,-90
18276142,2200,2664,-2301,4,0,-78
18279091,2225,2694,-2329,10,2,-65
18282128,2209,2681,-2358,0,7,-54
18285077,2209,2678,-2358,5,13,-35
18288137,2197,2704,-2371,-8,18,-24
18291236,2193,2673,-2347,-4,18,-7
18294273,2241,2705,-2286,-15,22,8
18297344,2217,2681,-2332,-14,22,20
18300432,2207,2690,-2316,-21,37,44
18303555,2237,2679,-2304,-25,22,51
18306678,2215,2696,-2319,-31,43,64
18309801,2247,2689,-2261,-33,31,76
18312949,2263,2671,-2310,-38,45,88
18316047,2244,2667,-2327,-38,34,92
18319170,2250,2688,-2279,-41,50,99
18322293,2239,2662,-2261,-47,36,103
18325503,2265,2683,-2298,-43,49,113
18328712,2268,2675,-2307,-50,40,114
18331922,2289,2636,-2286,-42,53,113
18335132,2270,2660,-2307,-45,37,116
18338366,2275,2638,-2326,-40,44,114
18341551,2274,2657,-2299,-46,37,102
18344761,2281,2638,-2320,-32,39,103
18347971,2267,2647,-2325,-38,29,95
18351094,2291,2635,-2295,-28,23,81
18354217,2271,2612,-2293,-27,30,68
18357340,2302,2649,-2305,-13,20,60
18360466,2310,2630,-2308,-15,22,39
18363634,2310,2591,-2345,-1,10,30
18366622,2263,2597,-2351,7,12,24
18369572,2268,2616,-2460,30,-5,-11
18372695,2224,2590,-2433,26,-6,-56
18375818,2251,2621,-2422,33,-22,-65
18379027,2277,2586,-2432,24,-16,-105
18382324,2296,2613,-2392,28,-25,-138
18385624,2295,2624,-2358,24,-1,-163
18388853,2300,2634,-2277,18,-13,-170
18392127,2293,2656,-2322,27,1,-165
18395250,2231,2608,-2314,37,-14,-176
18398581,2201,2631,-2386,47,-14,-183
18401843,2176,2678,-2407,31,-35,-191
18405139,2217,2664,-2413,24,-36,-179
18408436,2237,2662,-2362,1,-33,-172
18411670,2280,2686,-2318,3,-13,-158
18414855,2242,2665,-2344,-4,8,-139
18417978,2189,2705,-2332,7,-1,-122
18421101,2174,2683,-2367,8,6,-110
18424138,2138,2710,-2391,9,-13,-91
18427260,2182,2698,-2392,1,-1,-75
18430297,2210,2703,-2337,0,-5,-47
18433333,2225,2693,-2308,-14,22,-25
18436567,2215,2676,-2367,-22,28,5
18439579,2205,2693,-2297,-17,48,28
18442702,2170,2675,-2334,-23,32,40
18445825,2165,2683,-2316,-20,37,55
18448948,2198,2699,-2323,-26,17,71
18452071,2223,2714,-2332,-30,36,88
18455194,2274,2698,-2337,-39,25,103
18458404,2273,2677,-2287,-46,54,118
18461662,2243,2687,-2296,-54,52,128
18464823,2236,2690,-2302,-52,69,129
18468033,2229,2674,-2328,-56,48,120
18471243,2229,2631,-2313,-56,48,123
18474452,2259,2649,-2288,-61,40,123
18477662,2307,2679,-2256,-54,45,135
18480872,2294,2653,-2276,-56,48,136
18484082,2304,2644,-2309,-38,51,127
18487315,2266,2643,-2341,-43,55,105
18490501,2277,2654,-2305,-46,34,93
18493624,2265,2628,-2286,-53,34,80
18496747,2307,2648,-2262,-38,21,73
18499905,2326,2623,-2278,-38,38,68
18502993,2311,2614,-2293,-21,27,54
18506116,2301,2643,-2315,-14,31,31
18509239,2258,2618,-2351,-11,11,14
18512387,2282,2649,-2345,-5,12,-12
18515485,2294,2615,-2274,-3,-9,-30
18518608,2274,2663,-2286,-1,4,-44
18521644,2294,2641,-2289,5,-11,-58
18524767,2292,2632,-2274,12,7,-74
18527804,2269,2639,-2301,17,-6,-85
18530927,2255,2628,-2299,30,-8,-106
18534136,2217,2627,-2344,29,-21,-124
18537457,2224,2645,-2368,37,-22,-130
18540729,2256,2626,-2327,30,-29,-138
18544026,2251,2663,-2313,37,-24,-138
18547322,2230,2640,-2337,32,-11,-144
18550619,2245,2650,-2370,43,-17,-146
18553916,2219,2677,-2373,44,-9,-147
18557125,2206,2629,-2343,43,-28,-145
18560425,2209,2643,-2345,43,-15,-128
18563779,2213,2639,-2364,46,-27,-115
18567015,2223,2661,-2418,54,-12,-117
18570311,2189,2661,-2465,47,-19,-115
18573608,2199,2672,-2406,34,-1,-99
18576731,2190,2649,-2396,14,-8,-92
18579854,2207,2673,-2361,18,1,-83
18582890,2220,2678,-2394,8,4,-75
18585843,2214,2643,-2358,5,15,-55
18588899,2210,2656,-2359,-7,4,-42
18591912,2211,2659,-2378,-10,21,-30
18595122,2209,2674,-2420,-13,10,-28
18598331,2201,2688,-2422,-22,27,-9
18601489,2213,2698,-2419,-46,25,13
18604577,2203,2678,-2362,-50,33,36
18607700,2185,2654,-2339,-57,43,46
18610827,2201,2646,-2297,-56,50,63
18613971,2213,2665,-2338,-62,47,74
18617069,2206,2705,-2343,-55,51,91
18620192,2227,2711,-2367,-61,46,103
18623402,2264,2689,-2373,-62,47,125
18626612,2278,2706,-2314,-72,60,135
18629822,2287,2669,-2288,-65,53,144
18633031,2261,2659,-2292,-70,66,150
18636266,2243,2629,-2295,-70,53,143
18639451,2250,2649,-2270,-64,66,138
18642661,2274,2643,-2309,-59,42,138
18645871,2301,2681,-2270,-56,51,131
18649080,2289,2655,-2281,-52,31,123
18652290,2307,2664,-2287,-46,43,111
18655500,2286,2635,-2308,-48,39,92
18658623,2282,2619,-2283,-40,43,75
18661794,2280,2634,-2296,-42,31,53
18664869,2272,2638,-2278,-28,34,36
18667992,2272,2642,-2270,-30,19,17
18671115,2308,2633,-2297,-13,10,2
18674151,2304,2647,-2285,-15,14,-11
18677361,2287,2650,-2283,-4,1,-28
18680397,2261,2640,-2302,0,7,-40
18683346,2255,2631,-2297,14,-1,-53
18686493,2293,2644,-2293,11,0,-71
18689506,2278,2650,-2249,21,-10,-88
18692716,2252,2633,-2341,24,-12,-93
18695925,2271,2670,-2280,35,-18,-103
18699222,2291,2648,-2321,42,-6,-106
18702467,2263,2639,-2363,43,-20,-112
18705728,2237,2647,-2357,47,-11,-116
18709024,2233,2618,-2339,47,-24,-127
18712345,2227,2633,-2390,53,-18,-129
18715617,2257,2666,-2368,48,-29,-128
18718914,2241,2655,-2393,50,-24,-126
18722210,2248,2651,-2364,42,-13,-123
18725507,2223,2647,-2364,45,-17,-118
18728803,2225,2670,-2388,40,-6,-115
18732013,2215,2655,-2361,30,-19,-107
18735310,2207,2668,-2388,24,-5,-99
18738457,2224,2659,-2386,24,-13,-93
18741642,2229,2675,-2378,16,5,-77
18744679,2237,2647,-2408,8,-3,-68
18747715,2236,2671,-2366,7,18,-52
18750751,2215,2648,-2390,-3,6,-41
18753787,2230,2662,-2374,-8,22,-29
18756910,2204,2676,-2355,-15,9,-21
18760033,2235,2665,-2361,-20,25,-5
18763205,2220,2657,-2362,-30,17,9
18766193,2227,2685,-2380,-32,35,25
18769316,2236,2689,-2333,-36,25,34
18772439,2199,2681,-2375,-43,37,52
18775562,2207,2655,-2343,-48,34,59
18778685,2213,2682,-2360,-46,41,68
18781808,2234,2686,-2333,-53,38,73
18784931,2223,2671,-2331,-55,43,86
18788077,2252,2679,-2346,-60,41,86
18791177,2249,2659,-2318,-55,43,94
18794300,2268,2648,-2304,-60,52,98
18797423,2211,2662,-2307,-55,44,94
18800546,2266,2660,-2320,-57,51,98
18803704,2273,2650,-2279,-54,36,92
18806792,2275,2645,-2341,-55,45,85
18809915,2259,2656,-2291,-49,34,79
18813062,2260,2643,-2278,-45,45,77
18816161,2279,2672,-2306,-40,29,65
18819284,2285,2635,-2326,-37,43,61
18822407,2297,2649,-2332,-29,26,49
18825530,2294,2660,-2318,-29,37,40
18828653,2288,2631,-2281,-25,19,33
18831776,2279,2640,-2320,-22,29,24
18834899,2271,2640,-2261,-14,12,9
18837959,2291,2659,-2280,-2,21,2
18840884,2256,2657,-2354,-7,9,-9
18843834,2264,2642,-2315,3,12,-19
18846870,2272,2630,-2296,2,-1,-30
18849906,2266,2609,-2307,9,11,-40
18852943,2275,2656,-2304,8,-7,-54
18855979,2297,2645,-2342,13,7,-55
18859015,2302,2640,-2343,11,-7,-63
18862187,2282,2669,-2354,19,8,-66
18865174,2282,2669,-2345,14,-10,-70
18868384,2250,2644,-2363,23,1,-70
18871420,2258,2649,-2366,19,-11,-75
18874630,2278,2646,-2360,24,-3,-74
18877753,2236,2632,-2309,14,-5,-75
18880876,2263,2641,-2370,22,-4,-71
18883999,2264,2644,-2386,17,-3,-70
18887145,2251,2649,-2400,27,-2,-65
18890245,2268,2646,-2425,13,-4,-61
18893368,2278,2629,-2401,19,-2,-58
18896491,2236,2634,-2389,14,3,-57
18899527,2245,2597,-2345,12,-8,-61
18902650,2269,2637,-2367,5,5,-63
18905635,2261,2652,-2424,2,-1,-59
18908636,2247,2623,-2351,-6,12,-59
18911784,2244,2623,-2372,-5,0,-62
18914795,2226,2622,-2355,-16,14,-69
18918005,2237,2646,-2355,-16,3,-71
18921128,2238,2610,-2322,-31,12,-83
18924338,2252,2670,-2370,-38,-1,-69
18927548,2240,2562,-2180,-43,34,-61
18930757,2315,2654,-2178,-54,13,-20
18933967,2334,2787,-2389,-18,48,14
18937115,2280,2738,-2487,1,47,34
18940040,2178,2734,-2437,-20,49,36
18943163,2206,2688,-2362,-67,20,40
18946286,2303,2707,-2296,-92,31,69
18949409,2307,2645,-2101,-96,54,78
18952532,2304,2639,-2120,-85,59,85
18955655,2246,2694,-2224,-78,44,92
18958778,2181,2731,-2337,-65,35,89
18961950,2174,2687,-2329,-71,6,73
18964937,2180,2647,-2323,-76,-3,42
18968060,2265,2660,-2243,-90,-1,9
18971096,2291,2681,-2217,-83,14,-9
18974219,2287,2637,-2200,-84,47,-35
18977429,2242,2661,-2193,-67,44,-51
18980639,2196,2713,-2274,-45,46,-75
18983848,2130,2712,-2312,-21,14,-85
18987081,2111,2714,-2308,-2,-5,-95
18990181,2147,2688,-2252,4,-33,-95
18993304,2174,2676,-2230,13,-17,-90
18996514,2210,2652,-2193,24,-17,-93
18999724,2201,2670,-2257,43,7,-95
19002760,2130,2694,-2319,63,-10,-99
19006005,2111,2730,-2404,84,-16,-103
19009266,2135,2716,-2358,89,-52,-104
19012587,2152,2672,-2343,96,-39,-101
19015859,2222,2668,-2340,95,-38,-96
19019069,2220,2652,-2324,104,-15,-96
19022365,2181,2612,-2302,100,-7,-98
19025575,2182,2662,-2417,115,-6,-100
19028872,2164,2672,-2435,106,-8,-100
19032168,2189,2683,-2471,99,-32,-91
19035381,2207,2691,-2439,82,-26,-80
19038612,2223,2664,-2396,63,-20,-63
19041797,2247,2622,-2362,48,16,-48
19044920,2215,2610,-2431,38,14,-33
19048043,2208,2644,-2461,30,39,-21
19051166,2178,2666,-2495,21,13,-6
19054203,2197,2680,-2505,9,20,16
19057152,2256,2671,-2472,-10,8,44
19060188,2273,2642,-2428,-21,32,70
19063414,2312,2644,-2384,-43,43,106
19066521,2296,2609,-2377,-49,72,122
19069731,2248,2631,-2413,-64,70,133
19072941,2249,2661,-2431,-66,78,150
19076150,2242,2662,-2426,-77,61,162
19079360,2295,2636,-2423,-94,59,186
19082570,2349,2630,-2340,-106,64,195
19085890,2368,2622,-2297,-111,75,208
19089163,2342,2627,-2292,-122,87,201
19092459,2311,2641,-2307,-118,84,197
19095756,2287,2664,-2304,-124,89,188
19099053,2299,2644,-2337,-121,62,176
19102349,2342,2662,-2299,-122,67,159
19105649,2328,2622,-2260,-129,49,145
19108981,2391,2629,-2223,-122,65,128
19112263,2336,2614,-2183,-117,61,97
19115448,2295,2608,-2212,-96,54,70
19118571,2281,2652,-2245,-90,38,37
19121694,2281,2671,-2257,-73,31,18
19124817,2288,2650,-2233,-71,6,-9
19127853,2286,2679,-2221,-53,10,-30
19131063,2343,2661,-2210,-43,9,-60
19134186,2280,2632,-2240,-25,4,-85
19137334,2245,2641,-2201,-16,-1,-112
19140606,2217,2651,-2246,13,-12,-138
19143902,2212,2677,-2298,25,-23,-164
19147199,2226,2686,-2230,46,-50,-179
19150495,2232,2674,-2265,50,-42,-195
19153792,2221,2675,-2222,66,-49,-206
19157088,2217,2657,-2232,81,-35,-218
19160388,2188,2646,-2284,90,-51,-227
19163729,2166,2681,-2278,104,-48,-240
19167065,2165,2671,-2352,105,-60,-243
19170448,2173,2696,-2331,115,-59,-231
19173831,2167,2668,-2299,109,-53,-224
19177214,2192,2671,-2350,112,-53,-212
19180597,2164,2680,-2367,106,-34,-203
19183981,2147,2650,-2427,103,-46,-186
19187387,2130,2689,-2388,106,-26,-173
19190747,2164,2691,-2427,88,-37,-149
19194044,2159,2703,-2432,85,-26,-118
19197340,2204,2690,-2415,71,-22,-94
19200550,2212,2662,-2429,61,-6,-55
19203673,2197,2646,-2462,41,12,-34
19206796,2190,2656,-2457,36,14,-6
19209867,2196,2645,-2500,19,24,17
19212893,2211,2662,-2486,9,19,46
19215818,2209,2674,-2417,-8,35,70
19218854,2230,2666,-2467,-20,33,100
19222064,2250,2624,-2402,-39,56,124
19225274,2236,2640,-2489,-45,56,145
19228483,2246,2657,-2391,-62,77,167
19231693,2251,2645,-2387,-76,64,180
19234903,2240,2636,-2467,-85,79,192
19238137,2304,2653,-2382,-97,63,202
19241322,2297,2665,-2430,-108,82,214
19244619,2310,2633,-2345,-116,75,218
19247915,2311,2638,-2334,-118,95,218
19251212,2304,2614,-2351,-128,86,212
19254508,2287,2637,-2347,-125,81,202
19257805,2308,2646,-2347,-130,74,188
19261150,2325,2615,-2318,-124,60,173
19264398,2335,2632,-2252,-128,75,160
19267694,2359,2617,-2258,-117,59,144
19270991,2309,2622,-2252,-115,69,122
19274287,2288,2631,-2242,-99,48,89
19277411,2311,2631,-2245,-90,55,71
19280533,2299,2644,-2237,-81,29,43
19283656,2309,2635,-2197,-69,36,17
19286807,2269,2629,-2194,-57,13,-7
19289902,2285,2646,-2211,-38,15,-33
19293112,2281,2660,-2193,-30,5,-60
19296235,2263,2659,-2200,-10,5,-83
19299358,2243,2667,-2208,-4,-11,-108
19302655,2262,2653,-2264,15,-11,-126
19305951,2225,2668,-2211,25,-22,-153
19309248,2246,2688,-2229,41,-34,-164
19312587,2242,2669,-2241,47,-32,-183
19315841,2216,2665,-2212,64,-42,-191
19319137,2198,2674,-2231,69,-29,-200
19322434,2193,2674,-2256,85,-50,-210
19325730,2156,2664,-2311,89,-43,-211
19329027,2191,2686,-2306,95,-55,-211
19332323,2210,2679,-2297,97,-40,-207
19335623,2196,2690,-2327,94,-43,-194
19338941,2196,2670,-2353,105,-41,-182
19342299,2180,2676,-2374,97,-40,-176
19345596,2177,2661,-2384,94,-37,-154
19348892,2159,2676,-2420,89,-24,-141
19352189,2200,2681,-2402,85,-30,-121
19355485,2186,2652,-2436,74,-9,-96
19358608,2205,2665,-2431,68,-20,-73
19361867,2211,2667,-2409,52,8,-45
19364854,2220,2678,-2414,45,-2,-28
19367977,2227,2677,-2461,34,18,-3
19371014,2214,2650,-2460,24,8,10
19373963,2213,2672,-2509,12,28,33
19376999,2236,2669,-2448,-1,20,52
19380036,2237,2644,-2475,-14,43,76
19383159,2230,2652,-2419,-25,34,90
19386306,2247,2646,-2467,-38,56,115
19389491,2243,2640,-2427,-51,46,126
19392701,2275,2632,-2464,-58,63,138
19395911,2254,2621,-2433,-72,52,143
19399121,2267,2643,-2385,-78,66,154
19402331,2287,2622,-2398,-94,65,160
19405540,2286,2643,-2371,-97,69,158
19408750,2277,2647,-2413,-108,72,161
19412073,2293,2624,-2325,-103,68,158
19415378,2291,2653,-2349,-110,77,147
19418639,2289,2623,-2326,-110,57,138
19421936,2308,2650,-2335,-111,67,126
19425232,2301,2647,-2332,-109,52,116
19428529,2292,2636,-2321,-100,64,101
19431825,2282,2656,-2282,-102,42,84
19435035,2293,2668,-2295,-88,47,60
19438183,2294,2647,-2250,-89,37,43
19441281,2267,2650,-2246,-71,34,23
19444404,2259,2645,-2218,-72,25,3
19447441,2266,2655,-2218,-54,23,-14
19450650,2268,2667,-2234,-51,14,-31
19453860,2252,2672,-2222,-33,8,-56
19456983,2237,2660,-2215,-26,11,-71
19460193,2239,2668,-2205,-8,-5,-88
19463364,2225,2669,-2198,-5,-3,-106
19466525,2213,2691,-2234,11,-13,-114
19469822,2215,2679,-2195,22,-7,-132
19473032,2215,2681,-2243,33,-27,-137
19476328,2209,2697,-2243,40,-12,-144
19479625,2225,2689,-2249,52,-33,-153
19482921,2200,2669,-2276,65,-23,-155
19486242,2191,2675,-2282,65,-41,-154
19489514,2197,2694,-2298,77,-26,-149
19492811,2186,2716,-2272,75,-31,-151
19496107,2211,2687,-2299,82,-26,-140
19499404,2196,2680,-2318,79,-32,-135
19502700,2195,2675,-2374,83,-29,-119
19505997,2187,2660,-2392,76,-18,-111
19509293,2206,2687,-2364,83,-24,-97
19512526,2203,2682,-2389,73,-10,-75
19515748,2226,2675,-2415,66,-22,-65
19518922,2224,2660,-2401,61,3,-44
19521959,2210,2673,-2424,51,-7,-31
19525082,2204,2644,-2394,46,13,-14
19528205,2196,2652,-2446,38,-1,1
19531154,2231,2647,-2397,30,21,15
19534190,2244,2664,-2412,23,13,32
19537251,2262,2623,-2449,8,26,51
19540176,2261,2627,-2443,1,22,60
19543126,2259,2645,-2462,-12,41,71
19546249,2268,2611,-2431,-24,31,87
19549372,2280,2623,-2454,-28,48,99
19552495,2262,2630,-2449,-43,37,104
19555705,2275,2638,-2416,-48,54,110
19558914,2291,2627,-2406,-59,42,117
19562184,2288,2621,-2430,-63,55,116
19565334,2306,2627,-2405,-78,51,119
19568544,2290,2587,-2411,-77,59,115
19571753,2297,2649,-2390,-89,50,109
19574963,2302,2614,-2396,-83,60,106
19578173,2315,2627,-2351,-95,53,96
19581296,2283,2628,-2336,-91,49,90
19584419,2285,2638,-2327,-99,49,78
19587566,2296,2643,-2284,-90,48,68
19590665,2291,2618,-2341,-94,45,47
19593788,2277,2645,-2304,-86,39,40
19596911,2276,2657,-2287,-79,43,23
19600034,2297,2655,-2305,-79,23,5
19603070,2263,2658,-2265,-71,37,-8
19606193,2268,2668,-2275,-67,16,-18
19609403,2251,2686,-2259,-60,27,-37
19612636,2268,2681,-2229,-47,5,-46
19615774,2222,2676,-2239,-36,14,-67
19618945,2222,2675,-2219,-30,-2,-76
19622155,2245,2703,-2258,-19,6,-92
19625278,2216,2680,-2221,-14,-11,-99
19628574,2195,2679,-2228,0,-3,-106
19631697,2201,2700,-2223,6,-9,-122
19634820,2203,2695,-2238,22,-14,-123
19638141,2197,2712,-2215,26,-16,-129
19641413,2185,2696,-2254,37,-18,-124
19644710,2196,2703,-2249,45,-15,-129
19648007,2193,2691,-2236,50,-25,-128
19651303,2189,2692,-2289,56,-14,-116
19654600,2204,2699,-2273,57,-24,-113
19657896,2174,2674,-2283,68,-14,-110
19661241,2160,2704,-2312,65,-24,-102
19664489,2172,2683,-2323,70,-18,-85
19667699,2214,2691,-2356,65,-19,-77
19670908,2180,2682,-2358,68,-10,-64
19674118,2178,2667,-2368,64,-11,-52
19677328,2204,2668,-2394,62,-11,-36
19680538,2213,2653,-2435,54,9,-20
19683574,2230,2665,-2375,48,-2,-8
19686635,2229,2649,-2410,42,11,8
19689560,2205,2658,-2408,40,5,21
19692509,2252,2660,-2397,27,20,31
19695545,2239,2647,-2447,29,12,42
19698582,2249,2640,-2429,12,29,52
19701618,2272,2651,-2437,11,21,68
19704654,2269,2634,-2448,-5,34,75
19707690,2267,2639,-2456,-4,31,85
19710730,2285,2610,-2464,-20,37,88
19713873,2288,2616,-2431,-24,38,94
19717009,2273,2628,-2449,-35,53,99
19720096,2293,2615,-2425,-46,35,99
19723219,2286,2621,-2446,-55,59,102
19726428,2287,2629,-2402,-56,40,102
19729638,2287,2624,-2356,-66,58,97
19732761,2351,2617,-2385,-66,41,97
19735909,2348,2606,-2404,-70,52,90
19739007,2284,2613,-2392,-81,40,79
19742130,2299,2657,-2366,-74,51,71
19745253,2304,2618,-2327,-84,38,59
19748376,2325,2648,-2360,-78,48,52
19751499,2293,2643,-2306,-85,34,42
19754622,2298,2617,-2280,-76,43,30
19757745,2300,2655,-2273,-86,34,13
19760916,2263,2620,-2300,-74,27,0
19763904,2292,2664,-2299,-76,28,-14
19767114,2266,2648,-2287,-63,23,-28
19770324,2269,2677,-2253,-64,22,-40
19773534,2281,2665,-2205,-50,16,-52
19776744,2223,2667,-2251,-47,17,-66
19779953,2230,2679,-2234,-36,3,-75
19783076,2222,2680,-2237,-31,13,-84
19786311,2211,2685,-2263,-21,-2,-100
19789582,2220,2680,-2232,-12,3,-102
19792792,2229,2689,-2242,-6,-12,-111
19796089,2191,2696,-2240,7,-1,-113
19799212,2190,2709,-2237,8,-18,-116
19802421,2186,2696,-2221,20,-11,-115
19805718,2162,2701,-2195,21,-9,-120
19808928,2189,2712,-2238,35,-15,-117
19812248,2192,2691,-2265,33,-15,-114
19815521,2164,2710,-2259,46,-19,-108
19818852,2173,2704,-2312,48,-4,-100
19822027,2156,2687,-2261,50,-20,-88
19825237,2173,2692,-2291,55,-9,-87
19828360,2174,2653,-2278,56,-19,-75
19831569,2191,2710,-2357,55,-3,-67
19834692,2209,2706,-2326,60,-13,-54
19837927,2204,2697,-2360,55,0,-39
19840938,2214,2670,-2351,51,-7,-28
19844061,2193,2662,-2362,51,12,-16
19847184,2219,2656,-2398,43,0,-5
19850134,2210,2668,-2375,44,13,11
19853170,2228,2686,-2403,38,5,21
19856120,2217,2645,-2393,32,17,33
19859156,2277,2648,-2379,25,9,39
19862154,2244,2641,-2410,22,29,54
19865142,2288,2660,-2424,11,17,62
19868178,2261,2641,-2432,7,36,69
19871128,2280,2647,-2447,-4,23,71
19874164,2288,2632,-2402,-8,43,79
19877200,2288,2627,-2416,-18,29,83
19880323,2260,2624,-2438,-22,46,84
19883446,2285,2631,-2397,-27,30,87
19886593,2295,2642,-2393,-39,52,92
19889692,2292,2629,-2423,-43,36,90
19892815,2319,2600,-2381,-49,53,87
19895938,2276,2616,-2405,-58,40,77
19899061,2286,2628,-2404,-57,45,78
19902184,2293,2623,-2353,-66,35,68
19905307,2283,2652,-2366,-64,47,64
19908430,2308,2628,-2372,-72,33,56
19911576,2308,2617,-2320,-66,45,50
19914676,2290,2625,-2334,-72,33,39
19917799,2299,2629,-2341,-68,35,26
19920957,2299,2623,-2323,-76,32,13
19924045,2274,2635,-2295,-67,32,4
19927081,2262,2641,-2279,-71,23,-10
19930291,2296,2653,-2261,-59,25,-15
19933501,2269,2638,-2252,-59,21,-29
19936735,2263,2677,-2282,-52,13,-37
19939920,2250,2644,-2262,-52,22,-49
19943130,2260,2659,-2257,-40,7,-58
19946253,2237,2679,-2274,-43,21,-70
19949463,2244,2672,-2225,-28,-3,-78
19952672,2246,2666,-2246,-21,13,-79
19955882,2231,2720,-2252,-15,-6,-85
19959092,2253,2707,-2262,-6,8,-85
19962178,2206,2708,-2252,-4,-9,-90
19965251,2220,2697,-2242,8,1,-93
19968201,2221,2687,-2278,10,-13,-92
19971410,2202,2691,-2276,21,-9,-90
19974533,2199,2712,-2257,19,-8,-93
19977656,2178,2684,-2267,30,-16,-86
19980866,2198,2689,-2291,31,-8,-83
19983989,2201,2697,-2270,41,-13,-79
19987223,2178,2693,-2268,39,0,-72
19990235,2175,2683,-2266,43,-13,-65
19993445,2192,2683,-2296,44,1,-59
19996481,2205,2689,-2306,48,-11,-50
19999691,2181,2673,-2359,47,3,-44
20002727,2206,2698,-2358,47,-6,-34
20005850,2230,2670,-2370,44,6,-26
20008886,2220,2665,-2356,43,-4,-16
20012033,2200,2648,-2360,42,8,-1
20014959,2202,2661,-2313,40,0,-3
20017908,2214,2667,-2414,33,17,6
20020861,2221,2636,-2424,29,2,11
20023843,2231,2669,-2381,27,21,22
20026844,2259,2656,-2419,20,10,29
20029880,2258,2652,-2401,14,29,35
20032916,2248,2651,-2422,4,15,41
20035890,2275,2648,-2423,7,28,44
20038815,2281,2626,-2423,-1,17,51
20041851,2271,2633,-2421,-8,32,51
20044888,2269,2616,-2411,-15,21,49
20048011,2275,2634,-2411,-19,38,54
20051134,2249,2639,-2408,-28,24,53
20054257,2291,2622,-2357,-28,41,56
20057380,2276,2652,-2418,-38,24,52
20060506,2282,2622,-2431,-43,43,50
20063728,2303,2627,-2382,-49,31,44
20066749,2273,2632,-2398,-50,36,40
20069872,2290,2626,-2377,-54,33,35
20072995,2270,2646,-2373,-52,37,35
20076118,2276,2630,-2363,-61,26,23
20079241,2290,2637,-2361,-57,38,23
20082364,2283,2643,-2314,-62,26,11
20085490,2268,2644,-2328,-58,36,8
20088547,2261,2638,-2325,-66,32,-3
20091646,2287,2646,-2352,-56,21,-9
20094769,2234,2641,-2284,-62,27,-14
20097979,2249,2674,-2344,-54,20,-19
20101188,2262,2669,-2303,-54,26,-24
20104398,2251,2682,-2291,-46,14,-32
20107608,2241,2663,-2266,-42,24,-36
20110841,2253,2673,-2248,-40,9,-40
20113941,2244,2671,-2266,-34,26,-42
20117150,2240,2684,-2224,-25,5,-43
20120273,2206,2699,-2263,-25,18,-51
20123487,2244,2689,-2258,-17,2,-52
20126645,2217,2674,-2248,-11,15,-49
20129816,2220,2669,-2221,-5,-1,-51
20132939,2227,2674,-2243,-1,14,-50
20136086,2221,2683,-2248,5,0,-54
20139011,2209,2683,-2268,10,11,-51
20142134,2198,2693,-2251,14,-8,-46
20145258,2213,2675,-2290,21,4,-44
20148294,2212,2691,-2274,22,-3,-40
20151417,2223,2692,-2272,30,4,-36
20154453,2225,2659,-2271,28,-6,-34
20157576,2209,2687,-2283,36,5,-28
20160616,2227,2650,-2319,30,-5,-28
20163784,2231,2662,-2324,37,6,-20
20166771,2214,2677,-2327,33,-6,-21
20169894,2220,2679,-2368,39,9,-13
20172931,2210,2663,-2352,31,9,-10
20175967,2221,2657,-2339,38,3,-4
20178916,2251,2674,-2355,28,3,1
20181779,2236,2659,-2365,33,13,2
20184729,2254,2652,-2357,24,1,-1
20187703,2261,2669,-2380,28,14,6
20190628,2253,2643,-2397,22,1,10
20193577,2253,2658,-2431,22,18,11
20196614,2274,2615,-2390,12,3,9
20199476,2245,2622,-2392,11,25,12
20202512,2234,2624,-2408,6,5,14
20205375,2274,2608,-2439,0,26,11
20208325,2281,2641,-2449,-2,11,11
20211384,2300,2644,-2463,-9,29,13
20214397,2278,2629,-2417,-11,13,9
20217434,2285,2628,-2446,-16,31,8
20220470,2244,2623,-2399,-25,12,7
20223506,2276,2637,-2408,-26,31,4
20226546,2258,2628,-2412,-30,13,2
20229613,2254,2634,-2356,-32,32,-1
20232701,2275,2644,-2378,-39,15,-5
20235849,2242,2634,-2373,-39,30,-8
20238948,2277,2641,-2348,-44,18,-9
20242070,2267,2645,-2330,-45,28,-11
20245280,2279,2643,-2374,-49,14,-16
20248490,2242,2639,-2333,-44,27,-20
20251700,2248,2660,-2354,-51,19,-25
20254910,2254,2652,-2331,-48,26,-22
20258119,2244,2665,-2298,-52,20,-25
20261377,2244,2670,-2312,-45,24,-28
20264539,2227,2680,-2307,-48,23,-25
20267748,2236,2703,-2287,-40,20,-27
20270958,2216,2676,-2283,-47,22,-29
20274168,2221,2695,-2269,-38,18,-23
20277378,2215,2703,-2272,-37,29,-28
20280587,2216,2681,-2259,-30,14,-24
20283797,2217,2694,-2272,-32,24,-18
20287031,2215,2670,-2280,-25,12,-17
20290217,2208,2696,-2281,-16,26,-13
20293426,2227,2689,-2250,-16,8,-16
20296549,2205,2705,-2276,-8,20,-10
20299672,2211,2690,-2265,-11,11,-7
20302795,2233,2697,-2245,1,20,-2
20305745,2228,2700,-2265,-1,9,-2
20308694,2231,2669,-2295,4,18,2
20311580,2239,2674,-2284,7,6,2
20314333,2250,2672,-2243,13,19,9
20317283,2228,2672,-2274,9,6,8
20320059,2233,2661,-2310,20,20,10
20323095,2225,2662,-2330,16,7,14
20326044,2243,2680,-2313,23,14,20
20329081,2270,2665,-2323,20,6,17
20332065,2250,2666,-2326,23,16,20
20335066,2249,2663,-2356,22,4,20
20338040,2234,2653,-2316,29,17,23
20341052,2249,2660,-2341,20,5,15
20344002,2288,2646,-2397,25,19,19
20347038,2278,2627,-2363,21,2,14
20349987,2297,2640,-2379,21,19,16
20353024,2288,2629,-2357,18,-1,8
20355973,2287,2647,-2372,16,17,6
20358923,2269,2632,-2376,12,6,4
20361834,2292,2638,-2416,14,19,-4
20364822,2278,2606,-2399,10,2,-4
20367771,2289,2624,-2448,9,18,-9
20370721,2264,2609,-2407,0,5,-10
20373670,2291,2624,-2381,3,15,-20
20376706,2282,2615,-2382,-3,3,-23
20379743,2280,2621,-2382,-6,19,-30
20382866,2276,2623,-2392,-13,1,-30
20386013,2272,2622,-2407,-12,17,-38
20389198,2269,2657,-2417,-17,1,-41
20392321,2285,2639,-2411,-16,17,-46
20395531,2250,2610,-2404,-26,11,-51
20398741,2238,2660,-2404,-24,10,-48
20401951,2245,2630,-2379,-33,10,-57
20405160,2234,2642,-2354,-30,12,-56
20408370,2232,2676,-2374,-36,18,-60
20411603,2194,2635,-2359,-33,9,-59
20414703,2222,2673,-2342,-40,20,-61
20417913,2229,2680,-2351,-32,12,-59
20421122,2228,2697,-2336,-40,17,-58
20424332,2223,2653,-2346,-38,6,-52
20427455,2216,2672,-2264,-41,22,-53
20430665,2222,2660,-2276,-35,9,-46
20433823,2220,2696,-2277,-41,25,-44
20437022,2225,2698,-2298,-31,15,-38
20440208,2186,2695,-2323,-31,27,-34
20443417,2203,2705,-2289,-29,11,-28
20446627,2211,2695,-2273,-28,29,-17
20449837,2182,2702,-2258,-27,15,-18
20453047,2202,2711,-2288,-21,24,2
20456083,2196,2697,-2291,-23,14,0
20459119,2192,2697,-2253,-14,28,10
20462291,2190,2684,-2284,-16,14,15
20465365,2220,2719,-2289,-7,29,24
20468401,2203,2692,-2254,-9,17,28
20471437,2224,2698,-2252,-3,31,35
20474474,2214,2684,-2289,-7,17,38
20477510,2233,2711,-2277,2,30,45
20480459,2234,2677,-2308,-1,14,45
20483496,2241,2676,-2280,4,31,51
20486470,2226,2688,-2288,4,14,50
20489395,2239,2656,-2272,8,33,58
20492344,2227,2667,-2316,8,11,54
20495294,2244,2652,-2284,10,28,58
20498330,2253,2645,-2320,13,13,55
20501366,2268,2653,-2325,13,29,54
20504402,2270,2620,-2296,14,10,50
20507439,2307,2634,-2334,14,28,51
20510478,2285,2671,-2345,13,9,48
20513448,2285,2666,-2352,13,24,43
20516461,2281,2631,-2354,12,10,31
20519497,2305,2622,-2370,13,21,26
20522533,2296,2615,-2343,10,10,22
20525569,2282,2633,-2414,13,16,11
20528606,2301,2597,-2397,4,9,2
20531382,2316,2622,-2384,8,16,-4
20534366,2279,2640,-2366,3,3,-12
20537305,2260,2611,-2426,4,17,-18
20540317,2300,2602,-2409,1,0,-29
20543266,2293,2621,-2379,-1,20,-32
20546389,2300,2609,-2405,-4,-1,-43
20549512,2255,2620,-2418,-4,10,-49
20552635,2294,2619,-2415,-9,-2,-60
20555758,2275,2616,-2361,-13,12,-69
20558968,2304,2648,-2403,-15,-3,-73
20562239,2254,2642,-2386,-14,10,-78
20565388,2272,2638,-2367,-22,1,-83
20568511,2271,2656,-2363,-17,8,-87
20571634,2244,2633,-2355,-25,1,-89
20574757,2246,2652,-2374,-19,6,-89
20577880,2249,2651,-2359,-28,-1,-90
20581090,2250,2662,-2384,-24,10,-88
20584299,2206,2686,-2359,-32,14,-89
20587533,2222,2689,-2347,-27,3,-82
20590632,2199,2678,-2326,-29,16,-78
20593842,2185,2678,-2312,-30,-1,-77
20597052,2199,2679,-2341,-30,19,-69
20600261,2195,2669,-2322,-30,3,-58
20603384,2174,2706,-2258,-25,20,-54
20606594,2181,2715,-2317,-29,9,-47
20609717,2192,2696,-2286,-23,22,-36
20612950,2194,2681,-2313,-27,10,-32
20616136,2154,2702,-2287,-23,22,-16
20619346,2222,2702,-2261,-27,16,-6
20622469,2185,2709,-2255,-20,22,4
20625505,2190,2705,-2256,-21,21,15
20628628,2201,2709,-2272,-13,30,27
20631751,2196,2704,-2268,-17,20,31
20634910,2219,2706,-2250,-11,23,40
20638022,2219,2666,-2291,-13,29,50
20641120,2229,2699,-2259,-8,28,60
20644157,2245,2699,-2298,-11,29,60
20647280,2236,2690,-2264,-4,26,67
20650316,2239,2693,-2306,-5,34,74
20653352,2231,2675,-2290,1,23,78
20656302,2259,2679,-2337,-3,33,75
20659338,2255,2659,-2313,2,24,83
20662336,2263,2650,-2327,0,28,79
20665237,2273,2675,-2334,5,26,76
20668187,2268,2630,-2304,3,24,73
20671136,2307,2643,-2360,8,24,78
20674086,2281,2630,-2335,-1,21,68
20677122,2293,2616,-2360,9,19,62
20680071,2297,2647,-2355,4,21,55
20683021,2291,2629,-2335,6,20,47
20685995,2284,2614,-2387,1,17,39
20688920,2302,2622,-2364,10,18,33
20691956,2305,2604,-2403,5,15,22
20694905,2269,2644,-2367,10,11,12
20697942,2272,2603,-2369,0,8,1
20700718,2306,2613,-2421,6,9,-9
20703580,2277,2602,-2403,3,9,-18
20706530,2275,2612,-2395,2,4,-33
20709479,2310,2591,-2397,-3,5,-39
20712539,2263,2610,-2368,-1,7,-49
20715552,2300,2612,-2380,-9,-2,-62
20718675,2294,2628,-2390,-2,1,-67
20721711,2268,2629,-2394,-12,1,-76
20724834,2277,2630,-2372,-6,-1,-80
20727957,2293,2617,-2337,-16,2,-89
20731080,2263,2655,-2383,-6,-3,-94
20734203,2238,2653,-2365,-14,8,-102
20737456,2270,2648,-2380,-13,-9,-105
20740709,2241,2647,-2342,-17,6,-105
20743919,2251,2662,-2333,-16,-5,-102
20747216,2220,2658,-2337,-17,5,-103
20750425,2194,2673,-2337,-23,-5,-100
20753722,2206,2704,-2335,-23,12,-99
20756932,2222,2675,-2324,-22,-6,-94
20760141,2204,2673,-2296,-21,7,-83
20763313,2186,2681,-2284,-28,3,-77
20766387,2196,2667,-2333,-24,12,-69
20769597,2183,2693,-2296,-28,10,-59
20772807,2187,2680,-2326,-21,15,-51
20776017,2184,2711,-2255,-29,18,-37
20779226,2162,2704,-2279,-21,14,-26
20782436,2211,2708,-2291,-30,24,-16
20785649,2202,2693,-2289,-20,20,-6
20788793,2194,2719,-2294,-24,33,9
20791805,2195,2701,-2291,-20,17,19
20794928,2205,2699,-2274,-20,32,28
20798051,2209,2682,-2263,-17,19,40
20801174,2221,2703,-2260,-16,37,47
20804297,2204,2700,-2270,-17,24,56
20807420,2217,2700,-2302,-17,40,62
20810547,2228,2687,-2263,-13,22,69
20813691,2207,2678,-2340,-9,39,77
20816702,2262,2682,-2287,-13,24,78
20819825,2217,2667,-2308,-5,37,85
20822862,2250,2676,-2308,-7,24,85
20825898,2229,2640,-2299,-2,36,86
20828934,2279,2616,-2320,-6,19,82
20831970,2265,2665,-2273,2,35,84
20834920,2254,2645,-2338,-2,22,77
20837999,2277,2644,-2330,2,35,73
20840906,2305,2608,-2354,-1,15,67
20843942,2272,2622,-2342,4,32,61
20846891,2273,2615,-2350,5,11,53
20849841,2269,2632,-2345,4,26,45
20852790,2290,2642,-2370,4,11,35
20855740,2281,2629,-2364,6,22,27
20858689,2292,2608,-2399,2,5,15
20861601,2306,2613,-2367,6,20,5
20864415,2294,2615,-2392,4,4,-7
20867278,2287,2628,-2412,3,18,-19
20870314,2288,2602,-2384,3,-1,-30
20873350,2293,2625,-2430,0,14,-40
20876387,2298,2606,-2400,3,-1,-48
20879423,2301,2639,-2381,-3,8,-64
20882459,2281,2614,-2367,3,-4,-70
20885499,2268,2640,-2378,-3,6,-75
20888561,2260,2651,-2364,0,-8,-84
20891568,2265,2616,-2354,-5,5,-94
20894604,2278,2639,-2360,-3,-8,-98
20897727,2261,2662,-2373,-9,5,-99
20900763,2251,2639,-2363,-6,-8,-103
20903973,2222,2661,-2336,-13,4,-108
20907183,2228,2651,-2378,-13,-11,-105
20910569,2226,2671,-2350,-11,11,-106
20913887,2216,2645,-2298,-15,-8,-102
20917159,2219,2681,-2346,-14,5,-95
20920282,2217,2689,-2278,-16,-1,-90
20923492,2206,2661,-2296,-15,9,-85
20926615,2221,2686,-2318,-24,2,-79
20929738,2201,2700,-2328,-15,14,-69
20932948,2198,2659,-2344,-25,11,-60
20936180,2176,2712,-2310,-23,12,-49
20939402,2181,2700,-2288,-27,15,-36
20942577,2185,2693,-2329,-21,14,-25
20945786,2194,2692,-2339,-27,29,-11
20948996,2200,2699,-2289,-24,14,-1
20952119,2207,2689,-2253,-27,37,12
20955242,2186,2715,-2251,-25,21,24
20958365,2218,2694,-2271,-30,37,30
20961538,2197,2672,-2295,-23,21,40
20964611,2223,2699,-2277,-25,35,52
20967734,2230,2694,-2271,-23,25,60
20970857,2228,2696,-2306,-20,43,71
20973980,2222,2672,-2274,-20,25,77
20977103,2244,2678,-2296,-16,40,82
20980226,2216,2674,-2296,-20,27,85
20983349,2260,2678,-2298,-14,41,82
20986497,2247,2660,-2316,-18,26,87
20989595,2235,2664,-2289,-9,37,86
20992631,2249,2649,-2327,-13,26,82
20995754,2277,2624,-2327,-7,36,80
20998791,2252,2645,-2356,-7,20,76
21001827,2272,2642,-2307,-1,33,67
21004863,2315,2654,-2347,-4,17,63
21007899,2277,2642,-2345,2,26,57
21010873,2300,2641,-2300,-2,15,46
21013885,2278,2599,-2357,0,25,37
21016835,2313,2636,-2339,5,9,29
21019698,2307,2608,-2371,6,22,18
21022647,2275,2610,-2309,5,7,3
21025423,2301,2607,-2374,10,19,-3
21028459,2295,2632,-2350,4,-1,-20
21031496,2289,2640,-2342,9,13,-27
21034532,2283,2600,-2384,7,-3,-40
21037591,2292,2631,-2396,10,8,-51
21040639,2283,2627,-2349,7,-7,-62
21043640,2273,2626,-2394,8,7,-72
21046590,2237,2627,-2411,5,-9,-81
21049626,2250,2623,-2365,7,3,-90
21052576,2252,2627,-2404,4,-14,-97
21055699,2294,2640,-2349,6,4,-100
21058735,2257,2650,-2386,1,-14,-104
21062047,2260,2624,-2356,6,-6,-112
21065068,2235,2634,-2398,-4,-4,-114
21068278,2205,2659,-2368,3,-5,-112
21071400,2205,2639,-2395,-12,-3,-109
21074697,2235,2682,-2393,-3,-2,-108
21077907,2235,2663,-2335,-9,9,-103
21081030,2222,2682,-2354,-9,-4,-96
21084153,2206,2673,-2341,-13,12,-92
21087387,2198,2661,-2349,-14,-1,-85
21090572,2201,2691,-2337,-19,11,-74
21093782,2191,2695,-2313,-21,1,-61
21096905,2211,2681,-2305,-17,21,-50
21100115,2184,2692,-2312,-22,6,-37
21103238,2197,2679,-2301,-24,27,-27
21106448,2197,2697,-2305,-24,11,-15
21109657,2178,2692,-2281,-26,27,7
21112718,2179,2693,-2321,-32,23,15
21115816,2191,2695,-2285,-27,31,30
21118939,2218,2718,-2265,-30,27,34
21122062,2182,2697,-2293,-26,35,51
21125185,2234,2677,-2272,-32,28,58
21128308,2224,2701,-2273,-28,38,70
21131431,2227,2674,-2313,-30,28,74
21134554,2251,2669,-2309,-29,32,83
21137701,2241,2664,-2311,-31,45,88
21140839,2240,2668,-2289,-27,27,96
21143923,2247,2677,-2284,-26,48,95
21147047,2239,2677,-2305,-23,31,95
21150169,2253,2651,-2310,-27,45,97
21153293,2270,2687,-2340,-22,28,96
21156415,2269,2668,-2332,-16,43,92
21159538,2291,2660,-2308,-18,23,87
21162710,2270,2670,-2313,-14,40,83
21165784,2287,2641,-2303,-13,20,73
21168907,2292,2668,-2328,-10,38,67
21172030,2276,2652,-2324,-9,16,55
21175067,2299,2634,-2334,-5,29,45
21178103,2314,2620,-2348,1,12,28
21181052,2313,2624,-2330,1,24,22
21184002,2307,2623,-2327,4,2,7
21186802,2301,2610,-2318,2,14,-4
21189727,2284,2634,-2396,7,2,-20
21192677,2298,2623,-2338,7,11,-31
21195713,2279,2611,-2386,8,-6,-46
21198749,2299,2610,-2361,6,7,-53
21201699,2292,2616,-2372,12,-10,-66
21204909,2276,2626,-2344,10,3,-82
21207945,2282,2633,-2400,14,-11,-89
21211179,2242,2634,-2336,14,-4,-102
21214364,2251,2634,-2390,14,-18,-110
21217661,2218,2640,-2363,15,-3,-119
21220871,2246,2634,-2389,13,-14,-122
21224167,2223,2644,-2361,10,-11,-126
21227464,2250,2674,-2367,8,-18,-130
21230674,2233,2669,-2317,10,-8,-126
21233883,2212,2662,-2370,3,0,-125
21236943,2228,2664,-2395,4,-15,-125
21240129,2206,2670,-2373,-2,-2,-122
21243374,2226,2670,-2322,0,-10,-108
21246549,2192,2691,-2356,-7,-3,-106
21249758,2200,2681,-2356,-4,-4,-94
21252881,2212,2717,-2352,-10,12,-82
21256091,2211,2691,-2333,-11,3,-72
21259214,2174,2688,-2309,-18,21,-55
21262472,2199,2681,-2354,-15,5,-46
21265547,2178,2713,-2307,-23,24,-35
21268757,2179,2693,-2327,-23,15,-12
21271966,2197,2699,-2294,-26,33,4
21275003,2201,2691,-2268,-28,23,13
21278126,2192,2699,-2295,-25,37,34
21281249,2218,2702,-2309,-28,24,39
21284372,2194,2697,-2332,-31,43,57
21287519,2218,2710,-2270,-35,34,73
21290618,2182,2694,-2281,-33,42,83
21293741,2226,2702,-2284,-38,35,93
21296864,2231,2671,-2305,-29,48,104
21300073,2226,2706,-2302,-35,37,109
21303283,2258,2690,-2321,-33,53,117
21306493,2253,2652,-2299,-39,42,116
21309703,2254,2682,-2284,-29,44,120
21312937,2252,2668,-2288,-35,42,120
21316122,2292,2655,-2281,-28,46,119
21319332,2295,2669,-2297,-31,44,112
21322542,2302,2654,-2286,-25,35,110
21325751,2281,2646,-2297,-26,41,101
21328961,2297,2636,-2308,-19,28,92
21332084,2307,2644,-2348,-19,35,82
21335211,2308,2616,-2314,-16,21,66
21338353,2265,2632,-2313,-12,36,53
21341453,2303,2616,-2325,-9,16,39
21344524,2293,2634,-2376,-4,27,28
21347526,2293,2623,-2357,-2,7,11
21350475,2330,2640,-2342,-2,17,-1
21353511,2295,2623,-2348,2,4,-19
21356461,2308,2629,-2356,6,13,-35
21359497,2317,2619,-2381,9,-6,-48
21362582,2289,2628,-2358,7,3,-63
21365483,2276,2630,-2360,10,-10,-79
21368693,2277,2623,-2404,9,0,-94
21371642,2298,2635,-2363,18,-18,-102
21374939,2288,2630,-2383,19,-9,-120
21378148,2253,2631,-2379,16,-21,-127
21381445,2249,2637,-2362,21,-11,-136
21384741,2263,2658,-2368,17,-25,-144
21388062,2241,2652,-2360,20,-17,-146
21391335,2203,2646,-2376,11,-20,-150
21394631,2212,2659,-2373,21,-17,-150
21397927,2219,2665,-2360,10,-7,-154
21401137,2223,2655,-2348,12,-20,-145
21404434,2205,2694,-2381,9,-3,-141
21407557,2196,2690,-2337,4,-14,-133
21410791,2218,2670,-2384,7,2,-121
21413803,2147,2690,-2347,-1,-12,-115
21417099,2193,2691,-2371,1,3,-101
21420135,2185,2689,-2299,-6,-4,-87
21423258,2187,2678,-2307,-3,10,-71
21426381,2209,2695,-2336,-11,1,-59
21429504,2162,2717,-2353,-13,21,-42
21432714,2176,2668,-2332,-21,20,-20
21435947,2166,2708,-2343,-17,19,-5
21439047,2195,2699,-2302,-28,29,9
21442083,2169,2695,-2310,-26,26,29
21445241,2186,2699,-2288,-33,34,43
21448329,2210,2711,-2325,-31,34,58
21451452,2190,2713,-2299,-33,48,78
21454575,2184,2687,-2285,-35,35,91
21457698,2212,2694,-2288,-40,51,102
21460957,2226,2689,-2327,-38,39,113
21464118,2248,2679,-2295,-37,56,121
21467327,2250,2672,-2273,-43,44,128
21470537,2235,2657,-2306,-35,56,132
21473747,2244,2673,-2317,-38,43,134
21476957,2261,2655,-2278,-34,52,140
21480166,2279,2655,-2288,-39,46,138
21483376,2287,2650,-2300,-31,42,134
21486610,2268,2642,-2320,-36,49,130
21489796,2300,2633,-2318,-28,39,123
21493005,2309,2654,-2306,-32,39,112
21496215,2290,2633,-2349,-25,27,98
21499338,2287,2635,-2321,-25,42,90
21502461,2323,2648,-2336,-17,26,77
21505584,2323,2618,-2316,-16,35,55
21508707,2303,2630,-2324,-12,18,45
21511855,2317,2644,-2332,-13,24,28
21514953,2333,2603,-2315,-7,7,6
21517816,2301,2623,-2333,-1,18,-5
21520852,2323,2602,-2339,2,0,-22
21523802,2307,2613,-2346,5,11,-37
21526838,2300,2626,-2370,6,-9,-56
21529874,2280,2609,-2339,16,-6,-77
21532997,2281,2649,-2372,8,-12,-93
21536143,2276,2631,-2389,18,-13,-108
21539417,2266,2615,-2369,13,-13,-120
21542713,2253,2629,-2371,22,-14,-128
21546045,2238,2624,-2350,18,-11,-146
21549306,2263,2632,-2351,24,-27,-149
21552603,2265,2658,-2342,16,-18,-158
21555899,2261,2647,-2391,23,-27,-162
21559196,2229,2638,-2325,20,-11,-165
21562553,2226,2669,-2362,22,-27,-165
21565789,2231,2656,-2356,17,-11,-159
21569085,2168,2665,-2338,16,-22,-155
21572382,2205,2698,-2374,17,-7,-152
21575591,2188,2666,-2381,8,-14,-143
21578801,2162,2662,-2374,10,-7,-125
21582011,2174,2687,-2347,3,-8,-118
21585134,2160,2692,-2302,6,3,-99
21588108,2169,2719,-2358,-4,-2,-87
21591206,2167,2676,-2365,-2,9,-71
21594243,2159,2691,-2309,-14,5,-57
21597366,2187,2713,-2314,-8,19,-38
21600489,2174,2696,-2344,-23,22,-17
21603698,2188,2718,-2327,-20,22,1
21606735,2179,2704,-2340,-29,28,20
21609858,2181,2705,-2324,-25,30,37
21613005,2196,2693,-2300,-34,33,50
21616104,2194,2693,-2326,-30,38,69
21619227,2190,2701,-2324,-39,35,82
21622350,2207,2709,-2319,-35,38,100
21625559,2238,2693,-2272,-44,53,111
21628769,2242,2686,-2322,-42,44,120
21631979,2247,2678,-2324,-46,53,130
21635192,2246,2677,-2278,-40,44,138
21638422,2246,2706,-2291,-44,60,145
21641608,2276,2681,-2286,-41,47,145
21644818,2249,2657,-2290,-41,61,142
21648063,2277,2643,-2275,-42,42,141
21651237,2272,2646,-2305,-35,54,143
21654447,2272,2653,-2328,-38,38,132
21657657,2321,2640,-2334,-31,54,123
21660915,2323,2644,-2322,-30,32,111
21664076,2302,2623,-2326,-24,40,100
21667286,2324,2621,-2303,-26,29,84
21670409,2306,2621,-2339,-17,31,73
21673532,2296,2615,-2302,-15,19,55
21676655,2310,2621,-2270,-10,24,41
21679778,2318,2593,-2325,-12,12,23
21682901,2319,2633,-2350,-2,10,0
21685875,2311,2609,-2356,-4,12,-18
21688974,2325,2611,-2347,3,2,-36
21691923,2300,2620,-2358,6,3,-54
21694873,2288,2600,-2348,11,-6,-65
21697996,2300,2634,-2345,12,-4,-85
21701119,2284,2654,-2358,15,-17,-95
21704328,2284,2638,-2375,14,-7,-115
21707538,2263,2607,-2360,20,-18,-125
21710859,2276,2636,-2391,20,-9,-139
21714044,2247,2625,-2353,22,-26,-149
21717341,2235,2660,-2373,24,-13,-155
21720637,2262,2640,-2349,21,-26,-161
21723934,2206,2650,-2374,26,-15,-167
21727230,2209,2654,-2365,22,-27,-166
21730527,2205,2670,-2316,25,-18,-159
21733824,2215,2673,-2340,13,-21,-159
21737143,2203,2672,-2324,22,-15,-150
21740416,2184,2694,-2344,8,-18,-146
21743626,2164,2668,-2355,11,-14,-133
21746923,2173,2652,-2334,5,-2,-124
21750081,2190,2679,-2343,6,-11,-106
21753255,2171,2681,-2377,-5,8,-94
21756292,2165,2699,-2360,-1,0,-82
21759328,2166,2701,-2326,-4,18,-56
21762499,2193,2707,-2340,-10,8,-41
21765574,2209,2689,-2335,-14,24,-28
21768784,2172,2688,-2343,-17,15,-9
21771907,2193,2677,-2334,-21,36,12
21775030,2161,2704,-2358,-26,22,27
21778153,2209,2691,-2316,-27,41,44
21781276,2198,2705,-2331,-35,38,60
21784399,2202,2702,-2332,-34,41,79
21787546,2193,2676,-2331,-41,40,90
21790645,2230,2702,-2298,-39,47,105
21793855,2224,2674,-2276,-48,45,111
21797064,2247,2683,-2307,-41,49,129
21800274,2261,2705,-2297,-49,55,132
21803484,2235,2684,-2327,-43,46,136
21806693,2273,2686,-2306,-50,56,140
21809903,2277,2673,-2283,-42,49,142
21813138,2256,2681,-2327,-44,58,138
21816323,2277,2656,-2303,-41,40,136
21819533,2288,2656,-2284,-38,53,131
21822742,2295,2625,-2291,-37,37,121
21825952,2293,2643,-2342,-29,44,108
21829162,2317,2634,-2275,-31,31,100
21832371,2312,2635,-2312,-22,38,89
21835498,2299,2614,-2340,-26,25,70
21838641,2335,2632,-2313,-15,31,63
21841740,2322,2616,-2306,-19,18,42
21844864,2303,2636,-2322,-7,13,24
21847900,2295,2611,-2344,-10,15,1
21850971,2323,2630,-2341,0,6,-10
21853885,2301,2622,-2350,-3,9,-31
21856922,2302,2634,-2326,7,-4,-45
21859958,2279,2636,-2370,6,3,-65
21862956,2296,2632,-2335,15,-10,-77
21866117,2286,2644,-2326,11,-6,-95
21869240,2261,2619,-2372,19,-13,-104
21872537,2287,2625,-2372,16,-8,-119
21875746,2282,2624,-2362,24,-26,-131
21879043,2249,2623,-2359,24,-10,-141
21882339,2250,2641,-2352,26,-26,-148
21885639,2243,2672,-2359,28,-15,-154
21888957,2253,2658,-2389,25,-23,-157
21892229,2232,2653,-2366,27,-15,-155
21895525,2230,2656,-2334,20,-14,-157
21898822,2201,2641,-2348,25,-21,-150
21902119,2179,2647,-2383,17,-10,-149
21905415,2205,2673,-2355,17,-16,-138
21908711,2214,2686,-2376,13,-1,-125
21911946,2198,2669,-2324,15,-17,-118
21915218,2185,2675,-2356,9,6,-101
21918254,2198,2687,-2352,3,-6,-91
21921290,2216,2680,-2327,1,8,-69
21924240,2179,2683,-2338,-9,5,-55
21927276,2187,2684,-2359,-6,19,-38
21930399,2163,2710,-2307,-16,12,-25
21933609,2203,2693,-2370,-18,23,-4
21936755,2207,2681,-2337,-22,20,10
21939855,2223,2690,-2368,-22,31,28
21942978,2203,2698,-2343,-31,28,40
21946101,2215,2695,-2319,-31,32,63
21949224,2194,2697,-2312,-40,43,72
21952382,2208,2686,-2339,-34,41,86
21955470,2208,2681,-2309,-45,49,97
21958593,2204,2686,-2323,-42,40,110
21961852,2235,2679,-2250,-48,53,114
21965012,2247,2683,-2277,-47,41,126
21968222,2262,2666,-2301,-46,58,133
21971432,2256,2662,-2296,-44,41,129
21974641,2265,2666,-2299,-48,59,133
21977851,2276,2656,-2300,-43,39,134
21981061,2298,2658,-2292,-40,54,125
21984271,2287,2654,-2326,-44,40,124
21987505,2295,2648,-2317,-33,51,114
21990690,2277,2650,-2285,-36,33,105
21993900,2303,2649,-2324,-26,36,92
21997023,2284,2643,-2289,-31,29,79
22000146,2300,2663,-2319,-19,31,67
22003269,2291,2618,-2328,-22,22,51
22006392,2303,2652,-2296,-15,23,35
22009515,2299,2645,-2315,-15,11,20
22012662,2312,2621,-2330,-5,11,0
22015587,2283,2616,-2348,-6,3,-13
22018624,2283,2646,-2293,5,5,-34
22021573,2283,2627,-2350,3,-7,-46
22024609,2269,2657,-2317,13,2,-66
22027646,2255,2626,-2351,12,-14,-82
22030855,2267,2630,-2362,18,-3,-92
22033978,2244,2631,-2351,18,-20,-105
22037298,2272,2646,-2355,23,-7,-116
22040485,2251,2644,-2322,21,-16,-132
22043781,2257,2643,-2339,31,-18,-138
22047078,2225,2622,-2327,23,-20,-145
22050374,2216,2658,-2373,30,-22,-148
22053706,2223,2655,-2337,27,-14,-151
22056967,2228,2653,-2370,27,-25,-152
22060267,2226,2670,-2359,23,-10,-149
22063662,2217,2665,-2359,22,-23,-146
22066857,2193,2678,-2384,23,-9,-139
22070066,2204,2660,-2340,19,-18,-130
22073363,2176,2663,-2333,17,-7,-114
22076573,2181,2687,-2371,10,-12,-112
22079869,2190,2677,-2366,11,0,-94
22082905,2177,2667,-2374,3,0,-83
22085879,2199,2696,-2332,8,9,-62
22088805,2162,2705,-2376,-6,5,-53
22091841,2185,2687,-2329,-5,15,-35
22094964,2162,2699,-2362,-13,13,-22
22098173,2189,2688,-2332,-16,18,4
22101210,2193,2672,-2310,-24,31,17
22104333,2181,2697,-2337,-23,27,36
22107456,2179,2689,-2333,-34,39,48
22110582,2234,2679,-2329,-31,33,63
22113726,2218,2683,-2347,-37,42,73
22116825,2218,2675,-2355,-38,39,88
22119948,2251,2654,-2332,-43,50,97
22123071,2250,2688,-2324,-47,41,111
22126280,2238,2664,-2340,-47,60,121
22129490,2247,2702,-2327,-48,38,127
22132700,2271,2662,-2291,-49,58,129
22135933,2260,2671,-2333,-49,44,134
22139119,2269,2666,-2310,-47,55,131
22142329,2297,2654,-2319,-47,40,131
22145539,2261,2663,-2306,-45,53,126
22148749,2291,2656,-2286,-44,39,122
22151959,2288,2644,-2330,-37,40,111
22155207,2299,2623,-2291,-40,38,99
22158291,2300,2620,-2301,-35,39,87
22161463,2293,2636,-2349,-31,32,75
22164537,2300,2637,-2302,-23,29,65
22167660,2306,2615,-2272,-23,32,45
22170783,2296,2638,-2333,-20,17,27
22173906,2299,2632,-2289,-18,23,9
22176942,2298,2636,-2341,-10,5,-3
22179979,2299,2621,-2331,-10,17,-22
22183188,2286,2643,-2356,1,-3,-38
22186249,2284,2604,-2321,1,6,-52
22189174,2293,2632,-2316,10,-11,-68
22192384,2283,2629,-2319,9,2,-81
22195333,2271,2631,-2353,16,-16,-96
22198543,2265,2628,-2340,20,-3,-112
22201753,2289,2648,-2352,22,-23,-124
22205049,2259,2650,-2354,26,-11,-134
22208346,2257,2653,-2327,26,-24,-141
22211667,2227,2643,-2309,31,-18,-147
22214939,2225,2648,-2336,30,-27,-155
22218236,2220,2659,-2334,35,-18,-154
22221532,2209,2674,-2381,26,-15,-153
22224828,2202,2673,-2349,32,-25,-151
22228125,2206,2664,-2376,22,-13,-149
22231421,2218,2682,-2335,24,-25,-137
22234718,2183,2671,-2328,25,-6,-130
22237951,2182,2676,-2359,20,-17,-122
22241224,2176,2689,-2389,17,-5,-104
22244434,2176,2669,-2346,8,-4,-93
22247470,2172,2688,-2370,12,2,-77
22250507,2199,2699,-2313,1,1,-62
22253456,2208,2681,-2332,1,11,-50
22256527,2190,2687,-2396,-8,13,-35
22259615,2183,2672,-2317,-6,19,-14
22262787,2193,2692,-2324,-17,17,2
22265774,2207,2729,-2324,-15,30,15
22268898,2217,2705,-2332,-25,25,33
22272020,2190,2699,-2362,-26,29,54
22275143,2211,2683,-2350,-35,43,65
22278267,2235,2675,-2338,-37,41,87
22281389,2223,2679,-2306,-44,47,94
22284512,2257,2698,-2324,-40,43,109
22287747,2234,2674,-2327,-50,48,114
22290932,2218,2675,-2297,-50,42,127
22294142,2250,2661,-2279,-52,59,131
22297351,2266,2657,-2334,-49,46,135
22300561,2266,2663,-2289,-52,59,137
22303771,2286,2651,-2322,-53,42,135
22306981,2279,2687,-2287,-49,59,136
22310194,2279,2643,-2304,-50,42,128
22313425,2286,2638,-2313,-46,54,125
22316610,2307,2648,-2306,-45,37,116
22319820,2299,2631,-2313,-39,44,105
22323029,2289,2622,-2304,-39,32,88
22326152,2298,2637,-2310,-33,42,78
22329275,2288,2633,-2308,-32,22,62
22332398,2309,2620,-2290,-23,34,51
22335525,2310,2625,-2306,-23,20,31
22338668,2296,2619,-2312,-10,16,15
22341767,2277,2624,-2326,-16,10,-7
22344890,2304,2631,-2318,-3,12,-22
22348014,2299,2631,-2344,-6,0,-41
22351050,2273,2629,-2341,5,3,-52
22353999,2290,2641,-2314,5,-5,-75
22357070,2284,2629,-2316,13,-6,-85
22360162,2292,2640,-2320,15,-15,-105
22363503,2289,2645,-2306,20,-21,-114
22366751,2265,2650,-2347,21,-9,-130
22369961,2262,2630,-2353,25,-26,-136
22373258,2251,2655,-2293,27,-16,-150
22376554,2220,2634,-2343,30,-31,-160
22379851,2231,2664,-2328,34,-15,-159
22383147,2226,2652,-2347,33,-31,-160
22386468,2190,2688,-2368,35,-18,-160
22389740,2215,2666,-2377,29,-27,-160
22393037,2194,2681,-2324,35,-16,-153
22396333,2216,2681,-2375,25,-13,-144
22399630,2171,2698,-2367,28,-20,-135
22402926,2210,2666,-2378,22,-5,-126
22406136,2174,2708,-2369,18,-15,-108
22409432,2170,2684,-2341,16,3,-99
22412493,2168,2701,-2340,9,-5,-84
22415505,2180,2688,-2325,9,13,-68
22418541,2178,2704,-2384,1,-2,-52
22421577,2181,2668,-2369,-1,20,-38
22424700,2160,2702,-2326,-4,11,-18
22427824,2186,2705,-2377,-11,28,1
22430860,2174,2672,-2342,-16,16,15
22433983,2198,2676,-2340,-17,34,41
22437129,2222,2702,-2321,-27,30,55
22440229,2221,2686,-2357,-30,41,67
22443352,2194,2693,-2351,-34,37,84
22446475,2243,2689,-2332,-37,48,98
22449598,2215,2688,-2397,-46,41,108
22452807,2227,2652,-2309,-43,44,119
22456017,2225,2678,-2336,-52,58,126
