Time,Accel_X,Accel_Y,Accel_Z,Gyro_X,Gyro_Y,Gyro_Z
23135304,2204,2721,-2321,-10,25,-12
23138538,2208,2699,-2285,-12,4,-10
23141637,2238,2712,-2295,-12,21,-10
23144847,2215,2668,-2282,-15,12,-14
23148056,2219,2682,-2282,-14,13,-11
23151266,2245,2709,-2303,-17,11,-16
23154476,2246,2711,-2308,-11,22,-17
23157686,2204,2738,-2343,-22,9,-16
23160809,2212,2715,-2322,-19,15,-15
23164067,2222,2695,-2292,-23,27,-19
23167228,2216,2683,-2309,-20,8,-14
23170351,2211,2701,-2280,-27,22,-22
23173561,2196,2691,-2264,-19,12,-22
23176771,2197,2702,-2288,-18,20,-20
23179980,2220,2703,-2324,-11,6,-27
23183103,2195,2667,-2275,-10,17,-28
23186313,2224,2754,-2319,-10,-4,-31
23189546,2200,2718,-2323,-9,19,-37
23192681,2194,2728,-2299,-14,8,-36
23195769,2232,2756,-2337,-12,20,-23
23198979,2208,2746,-2309,-13,14,-26
23202188,2159,2679,-2241,-4,24,-29
23205311,2187,2682,-2320,-10,9,-23
23208434,2214,2712,-2296,5,27,-22
23211474,2190,2719,-2284,-3,7,-17
23214531,2237,2700,-2286,2,11,7
23217370,2256,2743,-2280,4,9,8
23220146,2209,2735,-2294,12,32,25
23223182,2226,2687,-2293,5,21,35
23226131,2221,2694,-2331,8,35,41
23229081,2242,2681,-2356,4,15,38
23232030,2251,2680,-2298,0,34,39
23234980,2244,2671,-2296,-4,13,44
23238041,2299,2712,-2328,-9,30,50
23241052,2260,2653,-2278,-9,24,54
23244089,2302,2684,-2272,-12,36,52
23247212,2315,2733,-2353,-8,18,58
23250248,2282,2698,-2384,-6,45,50
23253284,2248,2683,-2309,-26,15,51
23256407,2246,2663,-2316,-41,26,48
23259530,2293,2652,-2360,-36,25,28
23262701,2295,2656,-2332,-35,41,24
23265776,2269,2652,-2283,-50,20,19
23268899,2322,2675,-2218,-52,37,42
23272022,2345,2697,-2289,-41,31,61
23275145,2264,2671,-2361,-5,34,45
23278181,2251,2705,-2385,-17,25,29
23281304,2299,2675,-2361,-37,11,24
23284427,2315,2664,-2324,-67,20,24
23287574,2350,2677,-2211,-66,29,16
23290673,2290,2666,-2151,-67,42,5
23293745,2281,2687,-2208,-53,31,-14
23296919,2219,2689,-2294,-44,18,-36
23300129,2164,2685,-2346,-45,-16,-67
23303426,2181,2684,-2261,-53,-22,-93
23306722,2232,2695,-2273,-54,-37,-116
23310105,2249,2701,-2212,-51,-5,-139
23313426,2239,2712,-2204,-48,-1,-160
23316698,2190,2686,-2230,-37,18,-173
23319995,2125,2741,-2240,-23,1,-196
23323205,2094,2744,-2291,-2,-16,-200
23326501,2099,2782,-2232,3,-36,-199
23329711,2124,2752,-2213,20,-42,-185
23333007,2153,2755,-2203,22,-23,-176
23336304,2128,2750,-2180,36,-16,-160
23339625,2089,2734,-2229,42,-2,-150
23342810,2073,2774,-2279,58,-23,-138
23346107,2070,2756,-2264,64,-16,-130
23349403,2109,2749,-2275,66,-40,-115
23352700,2108,2757,-2249,71,-30,-91
23355909,2150,2758,-2284,64,-17,-74
23359119,2142,2745,-2264,74,-1,-58
23362290,2129,2717,-2295,66,3,-46
23365278,2115,2733,-2329,72,11,-39
23368401,2118,2736,-2365,54,0,-29
23371438,2150,2724,-2353,47,-7,-13
23374561,2170,2734,-2339,35,13,6
23377510,2182,2719,-2319,31,12,27
23380546,2195,2719,-2310,17,35,46
23383583,2209,2738,-2326,14,32,64
23386622,2190,2696,-2402,4,49,79
23389592,2147,2703,-2386,-5,33,95
23392605,2197,2698,-2376,-13,40,112
23395849,2228,2708,-2354,-21,32,130
23399024,2283,2678,-2328,-37,49,150
23402234,2296,2675,-2342,-39,52,176
23405444,2281,2699,-2347,-44,77,186
23408653,2263,2664,-2385,-49,61,195
23411867,2285,2667,-2383,-50,76,197
23415097,2271,2654,-2377,-57,57,202
23418283,2299,2674,-2387,-64,62,204
23421492,2334,2684,-2374,-76,58,205
23424702,2324,2639,-2338,-69,73,198
23427912,2341,2659,-2275,-80,64,188
23431122,2342,2654,-2355,-76,65,169
23434331,2334,2644,-2290,-83,55,149
23437566,2330,2639,-2343,-77,46,128
23440751,2330,2638,-2296,-83,39,109
23443961,2359,2644,-2271,-78,36,85
23447084,2322,2648,-2271,-82,46,57
23450207,2337,2667,-2265,-71,32,34
23453330,2306,2657,-2260,-67,39,7
23456366,2275,2667,-2260,-60,18,-22
23459576,2270,2671,-2285,-59,19,-46
23462834,2281,2676,-2236,-48,-8,-78
23465995,2295,2669,-2240,-37,7,-98
23469118,2252,2687,-2226,-29,-12,-114
23472501,2263,2686,-2213,-18,4,-135
23475711,2240,2691,-2201,-12,-18,-154
23479094,2210,2698,-2256,8,-16,-175
23482304,2210,2699,-2227,9,-33,-188
23485514,2221,2728,-2250,24,-32,-201
23488834,2226,2748,-2227,27,-27,-209
23492107,2175,2743,-2233,39,-40,-208
23495407,2175,2744,-2220,41,-30,-213
23498735,2154,2731,-2237,49,-42,-215
23501996,2132,2740,-2280,57,-26,-211
23505293,2120,2730,-2221,59,-45,-210
23508589,2141,2722,-2277,65,-36,-200
23511910,2147,2756,-2241,60,-42,-186
23515182,2147,2748,-2255,64,-26,-172
23518479,2131,2725,-2291,59,-20,-154
23521775,2121,2748,-2318,62,-21,-140
23525072,2138,2752,-2321,55,-20,-124
23528368,2142,2746,-2371,55,-17,-107
23531665,2138,2744,-2300,44,-1,-75
23534788,2157,2738,-2339,44,-8,-53
23537935,2145,2722,-2324,31,13,-34
23541034,2179,2738,-2307,28,5,-11
23544070,2140,2745,-2337,23,25,11
23547106,2173,2719,-2348,15,13,29
23550143,2022,2431,-2107,-2,21,0
23553092,2270,2951,-2507,9,-18,46
23556128,2317,2929,-2600,11,66,96
23559165,2188,2768,-2271,-2,81,118
23562348,2118,2631,-2286,-76,-2,162
23565497,2318,2641,-2399,-30,76,110
23568707,2132,2654,-2370,-14,100,115
23572004,2144,2645,-2300,-65,27,142
23575213,2255,2683,-2328,-54,39,157
23578423,2342,2845,-2354,-53,36,176
23581633,2344,2767,-2388,-40,76,192
23584843,2238,2654,-2303,-49,69,191
23588076,2243,2678,-2324,-79,45,191
23591262,2270,2625,-2369,-72,73,158
23594472,2160,2506,-2236,-63,75,132
23597682,2037,2138,-1849,-99,18,45
23600840,2560,3238,-2727,-40,-20,103
23604101,2562,2976,-2657,-18,176,140
23607398,2174,2782,-2114,-68,29,161
23610607,2287,2382,-2303,-151,-38,157
23614015,2352,2526,-2271,0,104,-10
23617114,2092,2538,-2254,-55,23,12
23620237,2241,2555,-2143,-75,3,-22
23623360,2328,2791,-2226,-48,-6,-21
23626569,2404,2923,-2367,-32,-15,9
23629692,2401,2851,-2377,4,56,2
23632555,2195,2638,-2239,-4,29,-5
23635591,2212,2619,-2273,-50,-10,-27
23638912,2104,2278,-2144,-50,37,-188
23642184,2582,3583,-2791,24,-93,-189
23645481,2591,3272,-2820,21,-38,-100
23648777,2134,2622,-1913,42,68,-132
23651987,2102,2650,-2167,-147,-210,16
23655370,2434,2499,-2317,47,136,-191
23658667,2081,2785,-2277,32,-29,-126
23662012,2011,2262,-2093,-33,-40,-159
23665347,2176,2737,-2158,24,-59,-199
23668643,2277,2885,-2301,41,-69,-153
23671940,2362,3044,-2393,95,9,-125
23675063,2144,2832,-2290,63,-9,-72
23678186,2213,2760,-2399,6,-24,-50
23681309,2185,2585,-2305,23,9,-107
23684432,2049,2477,-2193,35,23,-150
23687665,2055,2557,-2134,23,-26,-164
23690938,2200,2874,-2297,38,-28,-119
23694234,2324,2963,-2386,55,-10,-67
23697444,2224,2966,-2379,56,-10,7
23700484,2165,2838,-2392,23,1,28
23703465,2162,2614,-2289,19,22,13
23706466,2114,2549,-2305,-2,4,-10
23709502,2123,2470,-2214,1,22,-41
23712563,2159,2718,-2303,-1,2,-46
23715575,2326,2920,-2455,8,6,11
23718438,2303,2939,-2435,13,27,59
23721474,2241,2807,-2366,6,39,106
23724510,2200,2660,-2332,-17,19,107
23727720,2206,2565,-2321,-9,53,79
23730756,2151,2532,-2283,-22,39,56
23733879,2192,2565,-2255,-32,33,42
23737027,2244,2724,-2325,-41,13,47
23740125,2329,2831,-2405,-33,39,83
23743248,2308,2844,-2396,-36,39,108
23746458,2282,2754,-2411,-39,45,126
23749668,2211,2595,-2309,-53,47,109
23752877,2172,2491,-2255,-54,40,81
23756000,2189,2549,-2253,-61,37,37
23759123,2236,2647,-2272,-50,28,22
23762295,2310,2827,-2356,-54,29,39
23765369,2333,2844,-2402,-43,27,62
23768492,2281,2753,-2359,-49,50,71
23771615,2243,2630,-2266,-53,30,57
23774738,2210,2568,-2242,-53,38,24
23777861,1927,2004,-1908,-63,15,-87
23781071,2399,3092,-2530,-24,-41,-63
23784368,2512,3115,-2776,4,36,-6
23787340,2230,2837,-2175,18,125,-13
23790527,2097,2773,-2221,-99,-98,69
23793737,2321,2426,-2284,-24,96,-86
23796946,2130,2726,-2059,6,-15,-166
23800156,2366,3113,-2680,-14,-54,-48
23803491,2277,2667,-2308,29,143,-76
23806662,2045,2923,-2093,-72,-141,23
23809959,2466,2555,-2362,-49,-10,-33
23813280,2255,2856,-2291,98,115,-101
23816552,1983,2614,-2232,-51,-33,-26
23819848,2196,2568,-2131,-18,-2,-91
23823058,2129,2632,-2191,12,-2,-94
23826181,2232,2758,-2243,24,-27,-87
23829391,2275,2913,-2355,67,16,-69
23832514,2208,2858,-2285,21,-29,-15
23835724,2269,2827,-2393,17,-1,-6
23838784,2233,2660,-2300,29,46,-25
23841883,2032,2390,-2104,11,35,-56
23845006,2099,2581,-2170,-13,-24,-74
23848302,2269,2721,-2283,19,9,-77
23851339,2220,2816,-2287,40,11,-44
23854462,2251,2964,-2381,21,-29,22
23857585,2280,2792,-2403,15,13,40
23860621,2155,2584,-2273,12,18,36
23863706,2135,2418,-1719,-37,-51,-143
23867040,2396,3100,-2875,37,-26,7
23870077,2319,2610,-2668,68,198,-16
23873286,2072,2968,-2015,-60,-120,72
23876583,2474,2398,-2382,-117,-47,53
23879879,2415,3013,-2373,99,160,-54
23883089,2036,2681,-2328,-9,-2,77
23886125,2143,2375,-2147,-27,38,28
23889272,2148,2698,-2259,-20,-24,48
23892458,2410,2889,-2631,-13,-14,64
23895668,2396,2843,-2434,45,82,47
23898704,2086,2646,-2190,-17,12,83
23901827,2374,2811,-2465,-66,-15,125
23905159,2448,2761,-2499,1,100,64
23908160,2147,2471,-2185,-26,66,54
23911283,2178,2533,-2200,-61,-13,31
23914517,2337,2727,-2415,-17,32,22
23917616,2267,2737,-2335,12,44,27
23920652,2309,2822,-2406,-12,0,53
23923688,2335,2720,-2406,-37,5,69
23926724,2273,2610,-2321,-26,50,40
23929847,2273,2602,-2297,-52,9,16
23932884,2247,2548,-2297,-32,53,-34
23936093,2170,2613,-2170,-43,18,-63
23939328,2296,2811,-2427,-49,-24,-40
23942600,2366,2818,-2346,-28,30,-39
23945809,2218,2713,-2223,-37,-5,-36
23949019,2288,2710,-2289,-54,-12,-44
23952316,2290,2674,-2314,-24,28,-73
23955525,2124,2570,-2224,-28,33,-99
23958735,2142,2625,-2209,-52,-32,-108
23962168,2260,2759,-2304,-21,21,-119
23965415,2203,2792,-2247,-14,-3,-116
23968711,1764,1794,-1549,-44,-39,-228
23972095,2612,3693,-2917,33,-114,-125
23975478,2530,3272,-2955,69,112,-32
23978688,1991,2721,-1857,-19,10,-36
23981897,2074,2187,-2130,-174,-149,-15
23985367,2305,2594,-2162,35,124,-224
23988687,2003,2693,-2276,8,-17,-101
23991874,1983,2490,-1983,-22,16,-103
23995170,2098,2876,-2163,-1,-93,-60
23998380,2381,3089,-2552,60,-8,4
24001329,2302,2884,-2402,116,62,-7
24004452,2016,2645,-2187,17,-23,30
24007610,2220,2620,-2353,-30,-44,8
24010698,2267,2701,-2382,37,81,-45
24013846,2062,2531,-2145,31,57,-47
24016944,2068,2632,-2174,2,6,-34
24019894,2263,2898,-2364,25,-4,7
24022843,2312,2917,-2380,58,39,49
24025880,2219,2825,-2405,60,7,85
24028829,2179,2651,-2396,27,13,102
24031952,2138,2469,-2246,11,9,67
24034902,2208,2586,-2334,3,8,44
24037789,2258,2645,-2348,4,25,32
24040714,2214,2636,-2245,-1,56,9
24043663,2311,2845,-2388,-17,-10,53
24046873,1837,1667,-1608,-46,44,-19
24050083,2576,3511,-2949,28,-2,125
24053206,2432,2919,-2846,23,158,101
24056416,2087,2728,-2078,-15,28,58
24059539,2196,2357,-2332,-151,-109,113
24063111,2399,2552,-2273,40,146,-50
24066218,2123,2766,-2394,-33,17,63
24069341,2217,2572,-2227,-83,34,70
24072464,2320,2835,-2387,-34,3,85
24075501,2406,2911,-2543,-41,6,113
24078624,2300,2624,-2292,0,78,91
24081573,2101,2482,-2201,-27,41,82
24084696,2270,2627,-2348,-87,-28,78
24087934,2374,2638,-2381,-33,74,13
24091029,2236,2670,-2241,-31,49,24
24094152,2296,2720,-2341,-62,17,35
24097275,2318,2769,-2386,-39,28,47
24100398,2304,2733,-2297,-34,43,43
24103521,2239,2637,-2250,-32,17,27
24106644,2282,2594,-2232,-42,34,-12
24109893,2199,2600,-2197,-44,5,-48
24113001,2283,2742,-2315,-46,2,-51
24116100,2307,2721,-2274,-29,26,-64
24119309,2236,2751,-2230,-35,17,-67
24122519,2322,2819,-2353,-45,-14,-49
24125816,2229,2626,-2216,-20,40,-74
24129025,2109,2564,-2130,-39,-11,-93
24132322,2206,2626,-2187,-41,-20,-116
24135705,2001,2341,-1786,-23,-33,-283
24139113,2424,3403,-2551,20,-137,-214
24142472,2646,3537,-3002,89,160,-65
24145681,1869,2749,-1884,25,78,-16
24148804,2078,2351,-2131,-175,-153,19
24152188,2324,2536,-2297,11,93,-172
24155397,2008,2636,-2156,13,38,-151
24158607,1907,2412,-1855,-40,-27,-162
24162039,2117,2820,-2127,-13,-90,-130
24165374,2376,3143,-2502,81,-42,-49
24168583,2314,3060,-2425,133,15,6
24171620,2147,2833,-2369,45,-34,49
24174743,2171,2579,-2285,-7,-21,19
24177866,2196,2523,-2286,13,39,-57
24180989,2057,2412,-2132,28,74,-101
24184198,2010,2482,-2033,10,8,-113
24187345,2217,2919,-2305,42,-25,-40
24190531,2330,3123,-2472,88,25,33
24193567,2218,2937,-2375,95,14,103
24196690,2191,2701,-2383,35,-16,132
24199900,2181,2455,-2356,24,12,100
24203023,2114,2389,-2239,5,32,31
24205973,2128,2414,-2254,-1,16,7
24208922,2231,2646,-2316,-7,16,-17
24212088,2320,2971,-2463,11,5,48
24214995,2394,3028,-2542,15,37,112
24218118,2310,2823,-2455,5,27,134
24221154,2187,2510,-2280,-28,28,115
24224364,2256,2456,-2327,-24,29,61
24227487,1876,1787,-1840,-46,62,-43
24230696,2402,3196,-2633,-20,-38,-38
24233993,2536,3179,-2815,-10,99,45
24237140,2250,2967,-2163,-10,90,47
24240239,2178,2712,-2316,-142,-84,163
24243622,2433,2533,-2432,-43,111,37
24246832,2176,2657,-2284,-38,51,60
24249955,2105,2296,-2171,-106,19,29
24253165,2206,2595,-2198,-62,4,-16
24256288,2328,2881,-2391,-55,-13,6
24259411,2422,2990,-2470,-10,34,45
24262582,2348,2936,-2466,-12,45,86
24265657,2255,2770,-2354,-82,5,102
24268780,2248,2553,-2265,-71,52,34
24271903,2142,2391,-2134,-47,73,-24
24275112,2067,2365,-2021,-66,23,-77
24278322,2245,2713,-2227,-51,-10,-86
24281619,2366,2994,-2410,-8,27,-49
24284742,2329,2989,-2361,-6,1,-8
24287716,2280,2830,-2330,-36,6,19
24290727,2231,2566,-2227,-37,14,-18
24293937,2126,2500,-2139,-49,23,-69
24297147,2132,2474,-2137,-45,8,-120
24300357,2150,2608,-2128,-33,14,-159
24303653,2230,2916,-2307,-17,-29,-121
24307036,2329,2989,-2334,6,3,-79
24309986,1862,2068,-1724,-11,0,-112
24313238,2271,3077,-2382,11,-79,-108
24316492,2453,3055,-2663,61,40,-84
24319615,2215,3031,-2334,71,100,-60
24322825,1901,2443,-1973,-71,-55,-10
24326121,2201,2531,-2170,-42,-13,-94
24329418,2199,2760,-2307,41,55,-105
24332628,2151,2781,-2228,40,49,-59
24335751,2054,2686,-2112,-1,-44,-5
24338898,2166,2691,-2155,2,-50,6
24341823,2248,2740,-2305,57,-15,-3
24344946,2207,2743,-2359,96,29,2
24347896,2193,2738,-2305,46,-17,9
24350932,2205,2741,-2400,15,-25,22
24354055,2297,2802,-2461,20,49,15
24357091,2190,2622,-2286,28,49,1
24360041,2158,2597,-2175,1,16,9
24362952,2228,2692,-2292,22,9,16
24365853,2235,2733,-2334,41,25,16
24368889,2206,2755,-2363,50,18,36
24371925,2203,2716,-2416,22,3,48
24374875,2281,2706,-2439,21,-5,50
24377911,2270,2700,-2424,0,11,46
24380861,2293,2631,-2363,-3,22,27
24383897,2241,2626,-2355,-21,28,10
24387044,1967,2080,-1835,-44,13,-65
24390230,2504,3288,-2780,7,-35,5
24393179,2422,2890,-2791,30,79,46
24396215,2081,2641,-2052,9,88,10
24399165,2084,2585,-2274,-112,-116,85
24402548,2413,2512,-2415,-28,71,-30
24405758,2223,2783,-2384,3,45,-3
24408707,2083,2578,-2346,-81,14,13
24411854,2247,2595,-2239,-48,9,-11
24414988,2272,2835,-2405,-39,8,4
24417903,2327,2829,-2443,-7,23,26
24420939,2223,2736,-2335,-6,55,30
24423975,2162,2629,-2280,-63,-18,38
24427185,2303,2631,-2318,-68,12,21
24430308,2258,2627,-2341,-27,64,-19
24433518,2148,2547,-2153,-47,34,-33
24436731,2263,2788,-2321,-58,-13,-22
24440049,2304,2847,-2417,-22,41,-13
24443234,2211,2754,-2259,-23,23,-10
24446444,2242,2741,-2309,-43,5,7
24449393,2238,2622,-2237,-47,31,-21
24452603,2204,2631,-2199,-36,23,-32
24455813,2202,2651,-2281,-49,13,-44
24459022,2205,2726,-2230,-31,36,-60
24462281,2225,2866,-2290,-39,3,-46
24465355,2257,2852,-2311,-34,11,-21
24468565,2027,2311,-1721,-50,-10,-132
24471948,2265,2968,-2395,-14,-66,-42
24475245,2446,2954,-2558,55,152,-53
24478454,2139,3125,-2472,4,-3,58
24481404,2032,2508,-2110,-104,-5,50
24484614,2248,2816,-2240,-13,46,-38
24487848,2118,2552,-2210,-27,40,-15
24491033,2159,2570,-2050,-7,62,-41
24494156,2069,2683,-2081,-22,-37,9
24497279,2213,2733,-2179,-1,-40,16
24500402,2337,2913,-2305,70,18,26
24503438,2190,2811,-2346,55,-4,57
24506475,2247,2764,-2362,29,-3,69
24509511,2278,2722,-2359,10,13,38
24512570,2220,2585,-2288,6,36,18
24515531,2148,2506,-2182,5,41,-24
24518533,2203,2618,-2174,14,27,-27
24521656,2260,2772,-2275,17,1,-15
24524692,2318,2845,-2418,56,15,8
24527642,2235,2843,-2395,51,3,37
24530591,2216,2685,-2354,42,-6,48
24533627,2232,2677,-2403,21,-20,39
24536754,2234,2524,-2327,24,14,2
24539724,2224,2528,-2249,8,4,-35
24542649,2253,2623,-2334,3,3,-47
24545599,2292,2749,-2421,6,7,-54
24548548,2283,2795,-2433,19,13,-28
24551671,2280,2752,-2424,8,-9,-14
24554708,2244,2674,-2358,18,4,-26
24557744,2220,2604,-2365,3,0,-51
24560693,2125,2423,-2264,-8,9,-103
24563877,2170,2523,-2113,2,-53,-137
24567026,2417,3025,-2735,10,-10,-63
24570236,2235,2671,-2338,20,119,-83
24573446,2085,2820,-2316,-40,-41,-21
24576742,2309,2495,-2368,-45,45,-73
24579952,2202,2745,-2304,30,63,-94
24583075,2039,2540,-2243,-45,-4,-61
24586285,2158,2531,-2201,-38,-7,-82
24589519,2197,2758,-2306,-20,-17,-61
24592791,2333,2910,-2461,-1,7,-32
24595827,2240,2855,-2396,9,50,-9
24598777,2151,2715,-2277,-49,-10,10
24601986,2224,2616,-2316,-58,24,2
24605023,2186,2611,-2267,-34,55,-35
24608232,2082,2519,-2142,-40,51,-52
24611446,2169,2658,-2198,-48,-4,-41
24614675,2266,2912,-2354,-21,26,-16
24617897,2232,2900,-2292,-16,26,20
24620985,2254,2841,-2332,-31,18,56
24624108,2194,2645,-2270,-46,31,47
24627231,2134,2614,-2205,-51,28,22
24630354,2170,2604,-2186,-60,39,9
24633390,2016,2317,-1982,-56,40,-59
24636603,2308,3136,-2364,-35,-35,-19
24639921,2509,3282,-2723,0,27,79
24642846,1930,2236,-1854,-5,151,41
24645969,2179,3144,-2297,-64,-107,84
24649265,2572,2945,-2743,-6,132,79
24652388,2055,2668,-1959,48,185,27
24655511,1848,2395,-1963,-151,-95,127
24658894,2287,2416,-2130,-63,45,-3
24662066,2304,3005,-2313,32,26,52
24665054,2237,2844,-2366,-9,14,101
24668177,2262,2779,-2211,14,23,111
24671300,2229,2718,-2276,-26,-41,127
24674596,2371,2686,-2350,5,30,101
24677632,2263,2616,-2321,46,70,56
24680669,2092,2503,-2129,-12,31,37
24683792,2256,2652,-2280,-25,-18,20
24687026,2411,2849,-2456,44,61,25
24690038,2240,2705,-2299,35,28,23
24693074,2265,2741,-2292,23,-12,48
24696197,2331,2676,-2406,30,0,38
24699146,2253,2595,-2280,51,29,8
24702096,2222,2581,-2340,26,-20,-8
24705219,2234,2518,-2336,21,6,-46
24708255,2275,2686,-2399,25,-20,-66
24711468,2326,2779,-2448,22,-10,-53
24714698,2336,2722,-2406,28,9,-62
24717714,2231,2682,-2291,13,-15,-58
24720955,2295,2611,-2433,6,-18,-78
24724044,2258,2574,-2359,29,17,-107
24727253,1949,2091,-1938,-6,-17,-182
24730550,2400,3073,-2611,19,-74,-141
24733846,2415,2859,-2628,46,70,-133
24737081,2140,2772,-2172,21,14,-123
24740266,2159,2611,-2327,-95,-112,-73
24743649,2344,2579,-2387,25,76,-178
24746859,2050,2625,-2271,-2,15,-145
24750069,2122,2541,-2230,-43,-29,-135
24753452,2168,2713,-2297,-10,-15,-139
24756835,2264,2914,-2436,-9,-36,-99
24760045,2299,2906,-2437,12,16,-69
24763216,2114,2711,-2286,-9,19,-50
24766291,2154,2695,-2302,-48,-9,-32
24769501,2221,2702,-2373,-31,45,-65
24772710,2041,2551,-2172,-19,53,-70
24775920,2065,2671,-2188,-52,-2,-63
24779130,2259,2883,-2378,-32,-4,-31
24782340,2270,2877,-2318,-9,50,9
24785289,2136,2819,-2256,-36,1,49
24788350,2182,2755,-2279,-48,35,55
24791448,2150,2640,-2199,-39,44,33
24794571,2131,2609,-2176,-54,29,28
24797694,2159,2689,-2213,-48,33,21
24800817,2178,2770,-2233,-46,46,26
24803940,2225,2870,-2291,-47,19,67
24807063,2273,2892,-2329,-33,53,99
24810186,2193,2768,-2220,-35,45,107
24813419,2197,2660,-2204,-42,40,104
24816606,2218,2670,-2258,-35,36,91
24819729,2156,2635,-2223,-24,64,80
24822887,2152,2719,-2176,-35,23,87
24825975,2180,2641,-2237,-40,44,62
24829098,2226,2655,-1967,0,-39,39
24832134,2305,2775,-2441,6,20,128
24835170,2365,2927,-2324,42,140,86
24838318,2233,3155,-2582,-14,-28,216
24841590,2201,2147,-2120,-72,79,142
24844800,2233,2736,-2162,0,1,87
24847662,2114,2388,-2258,-64,-36,88
24850872,2280,2601,-2211,39,79,6
24853822,2201,2786,-2181,-9,-38,80
24856945,2320,2779,-2281,2,-31,92
24859981,2384,2798,-2366,64,25,77
24863065,2244,2693,-2375,42,0,77
24865967,2333,2645,-2386,16,2,59
24868916,2285,2562,-2376,22,23,-1
24871952,2208,2505,-2297,-9,11,-36
24875075,2303,2578,-2287,4,8,-77
24878025,2319,2709,-2318,20,21,-81
24881148,2307,2749,-2367,27,-1,-62
24884271,2339,2777,-2408,30,-15,-51
24887505,2304,2707,-2441,38,-5,-52
24890604,2199,2572,-2311,23,-14,-88
24893813,2204,2560,-2339,9,-39,-109
24897023,2213,2539,-2343,4,-2,-154
24900146,2232,2669,-2356,4,-34,-168
24903356,1963,2026,-1925,-28,-9,-219
24906652,2474,3259,-2755,33,-58,-130
24909949,2341,2809,-2684,37,75,-107
24913182,2066,2681,-2088,19,16,-142
24916368,2061,2441,-2246,-87,-91,-132
24919752,2288,2688,-2267,41,72,-251
24922996,2058,2747,-2348,16,-6,-176
24926171,2112,2614,-2233,-47,-22,-154
24929554,2191,2899,-2332,-14,-31,-119
24932938,2325,2968,-2516,-10,-2,-78
24936147,2189,2769,-2362,23,32,-70
24939295,2016,2592,-2190,-43,-10,-55
24942567,2132,2617,-2252,-54,-19,-64
24945863,2178,2691,-2304,-18,52,-88
24949073,2081,2726,-2201,-25,20,-68
24952283,2157,2828,-2260,-32,10,-16
24955493,2252,2924,-2388,-25,26,21
24958616,2155,2786,-2276,-14,50,50
24961742,2146,2736,-2233,-39,24,60
24964911,2087,2592,-2170,-43,40,51
24967985,2145,2624,-2165,-48,30,35
24971108,2198,2734,-2260,-39,32,48
24974231,2197,2810,-2241,-40,58,55
24977354,2250,2920,-2292,-38,26,99
24980477,2264,2852,-2385,-45,46,131
24983686,2198,2709,-2227,-30,63,136
24986921,2131,2609,-2148,-53,41,126
24990106,2188,2639,-2173,-43,39,103
24993316,2205,2700,-2247,-25,63,100
24996525,2225,2752,-2233,-31,32,114
24999735,2277,2840,-2309,-30,44,134
25002945,1819,1829,-1665,-53,33,14
25006068,2550,3468,-2739,20,-73,99
25009191,2727,3347,-3156,56,95,200
25012337,2138,2617,-1949,55,234,149
25015524,1906,2465,-1993,-170,-154,247
25018994,2459,2501,-2264,23,157,-6
25022117,2180,2774,-2329,56,64,43
25025188,2157,2455,-2189,-34,21,78
25028276,2271,2693,-2145,-23,-25,55
25031486,2335,2828,-2348,0,-56,86
25034522,2474,2812,-2453,57,6,69
25037496,2292,2697,-2409,90,47,56
25040508,2237,2543,-2303,-7,-29,49
25043631,2319,2534,-2393,-8,2,-39
25046667,2358,2657,-2416,18,64,-80
25049790,2138,2464,-2164,13,26,-111
25053000,2240,2676,-2298,-7,-26,-113
25056296,2440,2884,-2509,32,-18,-89
25059506,2314,2770,-2415,60,14,-84
25062731,2202,2659,-2322,21,-52,-75
25065839,2228,2510,-2327,8,-18,-117
25069048,2239,2605,-2317,21,-28,-150
25072345,2216,2574,-2359,3,-9,-179
25075468,2221,2606,-2300,6,-21,-200
25078678,2304,2862,-2462,5,-28,-174
25081887,2296,2860,-2499,15,-24,-148
25085184,2195,2682,-2330,17,9,-143
25088331,2073,2452,-2186,-31,-33,-188
25091690,2394,3134,-2500,11,-76,-254
25094987,2401,3181,-2761,41,-22,-154
25098283,2117,2557,-2234,29,109,-172
25101580,1966,2737,-2211,-113,-142,-58
25105050,2340,2512,-2381,-47,31,-143
25108346,2098,2859,-2326,39,51,-113
25111559,1997,2558,-2216,-56,-17,-59
25114876,2073,2636,-2144,-43,-3,-82
25118062,2153,2808,-2286,-30,-40,-42
25121359,2244,2898,-2368,19,50,-19
25124482,2090,2798,-2228,5,40,15
25127470,2149,2858,-2299,-63,-19,60
25130641,2276,2741,-2376,-55,35,50
25133764,2104,2627,-2164,-22,102,35
25136998,2019,2491,-2071,-67,27,35
25140097,2139,2710,-2196,-43,25,50
25143220,2254,2882,-2303,-16,53,73
25146343,2222,2864,-2233,-17,31,110
25149552,2222,2829,-2315,-43,28,149
25152762,2184,2687,-2261,-39,57,141
25155972,2179,2683,-2229,-55,45,139
25159182,2185,2590,-2247,-47,59,118
25162440,2145,2623,-2159,-46,64,96
25165514,2231,2769,-2275,-51,16,114
25168724,2053,2232,-1812,-37,29,22
25171847,2309,3012,-2179,18,-93,90
25174970,2631,3310,-2946,43,120,209
25178180,2103,2628,-1978,40,217,176
25181390,1965,2444,-2035,-169,-116,251
25184860,2404,2405,-2210,-6,146,-4
25188007,2188,2792,-2265,33,77,28
25191019,2057,2404,-2105,-57,29,49
25194142,2225,2720,-2089,-26,-22,46
25197352,2424,3008,-2497,-3,-68,101
25200561,2476,2903,-2505,87,52,98
25203598,2281,2736,-2297,44,9,98
25206547,2217,2549,-2341,-29,-23,71
25209757,2325,2520,-2375,-7,42,-13
25212903,2227,2505,-2304,11,55,-56
25216003,2171,2440,-2153,-6,22,-91
25219126,2294,2745,-2280,12,-7,-87
25222249,2379,2926,-2435,43,-17,-43
25225459,2369,2861,-2429,75,-5,-15
25228616,2238,2642,-2398,42,-20,-14
25231791,2225,2458,-2332,27,-28,-56
25235001,2239,2528,-2373,19,-17,-104
25238322,2243,2517,-2320,17,-10,-159
25241594,2261,2676,-2273,13,-13,-173
25244891,2344,2942,-2476,8,-43,-141
25248100,2362,2862,-2502,30,12,-118
25251310,2186,2666,-2313,6,-21,-114
25254520,2206,2521,-2297,-5,-33,-141
25257816,2187,2578,-2351,8,-11,-192
25261026,2140,2601,-2345,15,0,-209
25264197,2153,2696,-2321,-23,-27,-197
25267532,2291,2872,-2393,-18,-18,-170
25270916,2038,2403,-2156,-33,13,-170
25274212,2442,3445,-2505,10,-109,-137
25277595,2473,3160,-2923,18,35,-59
25280718,1896,2394,-1829,15,169,-137
25284015,1757,2549,-2046,-189,-187,-19
25287509,2346,2589,-2230,0,129,-198
25290695,2095,3022,-2306,51,39,-86
25293818,2077,2776,-2349,-75,-13,3
25296941,2193,2836,-2199,-35,-3,21
25300064,2129,2786,-2277,-45,-1,57
25303187,2211,2729,-2310,-1,52,56
25306223,2041,2628,-2199,-2,78,54
25309259,2088,2682,-2148,-71,-21,70
25312492,2244,2736,-2327,-63,29,64
25315592,2233,2805,-2322,-11,89,65
25318715,2105,2664,-2122,-44,53,97
25321838,2217,2844,-2291,-46,11,124
25325048,2264,2813,-2291,-20,79,135
25328261,2117,2672,-2139,-20,46,121
25331502,2167,2678,-2228,-47,24,134
25334677,2208,2592,-2198,-32,47,105
25337911,2237,2768,-2279,-30,36,117
25341096,2275,2769,-2309,-33,39,125
25344306,2215,2741,-2235,-20,72,119
25347516,2209,2791,-2293,-37,17,141
25350726,2275,2726,-2335,-12,57,131
25353935,1984,2161,-1959,-33,50,85
25357058,2286,2800,-2178,-27,-60,-13
25360355,2461,2990,-2601,11,-20,72
25363526,2440,2895,-2421,86,129,43
25366601,2306,3350,-2615,-49,-85,219
25369897,2342,2299,-2146,-32,125,89
25373107,2217,2783,-2243,13,27,61
25376143,2194,2257,-2316,-62,-10,41
25379353,2250,2517,-2097,43,67,-51
25382476,2046,2579,-2133,-35,-91,1
25385599,2468,2843,-2385,18,-33,-15
25388833,2428,2944,-2498,92,0,-9
25391758,2309,2799,-2430,45,-9,24
25394795,2344,2720,-2465,22,-30,7
25397831,2304,2595,-2453,9,28,-50
25400867,2198,2352,-2281,-9,20,-105
25404077,2189,2451,-2205,-11,16,-173
25407373,2252,2641,-2270,14,-10,-178
25410670,2302,2835,-2332,38,1,-157
25413816,2314,2956,-2475,37,-44,-114
25417089,2243,2731,-2431,34,-9,-95
25420212,2225,2661,-2341,7,-36,-112
25423422,2191,2443,-2315,-7,-19,-153
25426719,2167,2496,-2234,-9,-9,-199
25429928,2168,2650,-2289,-6,-18,-210
25433260,2271,2865,-2385,-10,-16,-184
25436612,2272,2929,-2438,7,-10,-133
25439842,2223,2786,-2362,-7,-5,-103
25443028,2148,2665,-2276,-4,-12,-102
25446324,2116,2577,-2234,-6,17,-121
25449534,1962,2293,-2106,-22,5,-151
25452744,2200,2886,-2221,-24,-44,-195
25456127,2419,3209,-2721,10,9,-65
25459163,2098,2784,-2137,25,139,-60
25462421,2001,2858,-2253,-81,-84,47
25465583,2261,2487,-2315,-71,23,9
25468619,2149,2737,-2259,23,99,-46
25471742,1973,2555,-2170,-68,0,14
25474778,2070,2527,-2065,-47,24,-9
25477901,2164,2844,-2216,-25,-7,27
25481024,2321,3034,-2486,-17,25,85
25484147,2264,2927,-2366,10,67,117
25487295,2103,2724,-2242,-47,31,152
25490480,2207,2624,-2278,-69,27,149
25493690,2196,2619,-2270,-31,105,89
25496899,2054,2501,-2073,-42,56,81
25500022,2185,2762,-2237,-50,25,92
25503145,2335,2944,-2389,-20,39,125
25506355,2273,2918,-2336,-5,62,159
25509478,2276,2861,-2336,-27,25,199
25512711,2272,2573,-2213,-36,65,178
25515898,2198,2536,-2234,-40,37,136
25519107,2220,2563,-2212,-38,49,108
25522317,2240,2609,-2225,-24,46,70
25525440,2235,2703,-2221,-33,25,65
25528563,2186,2463,-1957,-13,-46,21
25531773,2446,2968,-2434,22,-12,69
25534931,2490,3059,-2622,54,115,123
25538130,2221,2764,-2380,14,74,152
25541229,2126,2319,-2074,-96,-30,98
25544438,2248,2404,-2221,-32,27,-31
25547648,2245,2640,-2298,11,91,-89
25550771,2139,2638,-2127,-6,12,-49
25553894,2230,2667,-2197,-33,-62,-19
25557191,2456,2961,-2476,37,-34,1
25560227,2425,2876,-2440,67,28,-5
25563324,2198,2578,-2295,38,-11,-21
25566473,2199,2499,-2337,-9,-25,-57
25569683,2291,2575,-2445,-2,2,-119
25572806,2217,2566,-2271,7,33,-165
25575929,2209,2636,-2265,3,-7,-169
25579052,2277,2762,-2321,17,-9,-137
25582261,2299,2845,-2386,42,-15,-115
25585558,2286,2775,-2367,43,-4,-95
25588705,2163,2569,-2283,32,-28,-114
25591977,2116,2509,-2285,13,-34,-155
25595274,2187,2606,-2350,4,-36,-178
25598484,2215,2679,-2287,10,-4,-191
25601693,2231,2817,-2324,-2,-27,-177
25604990,2280,2883,-2361,8,-7,-128
25608113,2191,2787,-2349,6,9,-110
25611149,2116,2620,-2251,1,-4,-113
25614295,2117,2601,-2253,-15,-17,-128
25617655,2134,2616,-2285,4,-4,-142
25620778,2134,2705,-2257,-9,4,-130
25623901,2193,2804,-2302,-17,-12,-98
25627198,1853,2086,-1789,-46,27,-132
25630494,2410,3464,-2688,6,-50,-54
25633617,2380,3128,-2804,7,48,22
25636602,1970,2547,-2014,15,148,-16
25639801,1851,2549,-2077,-146,-112,70
25643160,2299,2548,-2232,-22,96,-62
25646370,2156,2908,-2272,31,66,-1
25649406,2127,2736,-2257,-58,8,71
25652442,2217,2876,-2285,-37,24,91
25655565,2201,2845,-2371,-32,28,145
25658775,2238,2750,-2299,-3,62,142
25661946,2107,2577,-2203,-15,74,145
25665108,2134,2636,-2209,-63,10,138
25668317,2265,2676,-2254,-59,46,116
25671527,2295,2727,-2306,-26,78,116
25674737,2193,2691,-2187,-34,57,133
25677947,2298,2855,-2330,-43,19,155
25681156,2333,2823,-2388,-14,65,167
25684366,2205,2649,-2251,-31,41,152
25687613,2217,2543,-2256,-45,26,138
25690786,2258,2577,-2232,-43,44,99
25693909,2297,2695,-2264,-28,36,87
25697032,2314,2697,-2299,-37,34,84
25700155,1897,1857,-1682,-44,45,-1
25703278,2537,3387,-2721,-2,-44,81
25706401,2388,2668,-2529,36,103,35
25709524,2330,3104,-2373,31,48,88
25712583,2179,2387,-2295,-101,-42,140
25715943,2341,2567,-2169,-6,110,-38
25719153,2187,2610,-2293,-45,-18,-1
25722363,2268,2571,-2221,-3,85,-79
25725486,2116,2701,-2160,-3,-28,-48
25728695,2277,2763,-2296,-23,-55,-26
25731992,2386,2844,-2341,53,-19,-34
25735202,2272,2756,-2432,48,-6,-22
25738368,2300,2673,-2374,13,-38,-43
25741534,2251,2586,-2346,14,5,-95
25744571,2237,2553,-2340,2,8,-129
25747607,2179,2544,-2288,8,17,-175
25750730,2211,2706,-2299,11,-14,-170
25754026,2281,2799,-2324,32,-16,-149
25757323,2282,2842,-2374,36,-27,-127
25760619,2227,2688,-2354,39,-19,-120
25763964,2174,2624,-2311,18,-24,-143
25767212,2176,2576,-2314,5,-32,-159
25770422,2165,2628,-2301,2,-8,-190
25773545,2208,2737,-2351,2,-27,-184
25776755,2217,2804,-2357,4,2,-162
25779791,2207,2867,-2353,10,-13,-132
25783088,2147,2721,-2298,-1,-1,-112
25786301,2131,2654,-2263,-2,-9,-111
25789532,2127,2660,-2275,-3,10,-119
25792717,1768,1871,-1657,-14,-40,-200
25796100,2353,3228,-2663,18,-37,-69
25799310,2278,2808,-2518,34,122,-49
25802520,2009,2901,-2109,0,27,-17
25805556,2144,2591,-2309,-100,-21,22
25808852,2245,2844,-2299,44,126,-47
25812087,1943,2622,-2194,-24,14,33
25815185,2079,2527,-2127,-55,19,36
25818308,2152,2782,-2282,-28,1,46
25821344,2281,2968,-2406,-14,2,93
25824381,2304,2919,-2388,8,52,124
25827417,2151,2755,-2275,-26,39,159
25830627,2189,2646,-2293,-72,27,166
25833836,2271,2642,-2323,-37,71,132
25837069,2107,2499,-2141,-35,91,112
25840291,2141,2581,-2094,-55,21,104
25843466,2271,2839,-2349,-32,44,132
25846675,2345,2867,-2344,-7,60,152
25849798,2258,2844,-2329,-23,45,177
25853008,2282,2681,-2341,-43,30,182
25856218,2268,2557,-2206,-44,62,137
25859428,2225,2559,-2223,-51,36,115
25862686,2260,2593,-2228,-38,61,77
25865760,2286,2728,-2257,-39,28,71
25868883,2351,2855,-2391,-33,27,95
25872006,2344,2806,-2384,-20,36,100
25875216,2288,2675,-2269,-21,28,97
25878339,1857,1639,-1604,-58,19,-14
25881549,2463,3059,-2592,8,-56,-39
25884672,2505,3009,-2663,19,-3,-42
25887819,2449,3164,-2532,66,123,-1
25890918,2164,2823,-2378,-35,-6,98
25894041,2274,2463,-2205,-55,8,-7
25897077,2406,2686,-2381,-10,33,-41
25900287,2224,2486,-2246,12,80,-99
25903410,2038,2420,-1973,-19,-10,-104
25906793,2133,2495,-2077,-33,-95,-105
25910176,2402,2897,-2457,62,-16,-117
25913497,2356,2949,-2466,93,-12,-84
25916683,2324,2862,-2430,33,-41,-54
25919892,2279,2670,-2380,-6,-21,-92
25923102,2191,2470,-2231,2,45,-144
25926225,2106,2395,-2162,-1,21,-210
25929435,2110,2522,-2156,-3,-4,-231
25932645,2189,2791,-2300,23,-38,-220
25935941,2282,3043,-2445,59,-28,-158
25939261,2247,2869,-2398,41,-34,-107
25942569,2185,2728,-2309,26,-26,-90
25945744,2158,2573,-2278,-2,-15,-121
25949040,2093,2467,-2194,6,4,-167
25952077,2052,2575,-2206,-12,-10,-192
25955460,2166,2777,-2349,-4,-15,-181
25958756,2237,2995,-2409,10,0,-109
25961929,2198,2875,-2366,11,-5,-57
25965002,2174,2753,-2256,-3,4,-24
25968039,1802,1923,-1800,-20,20,-83
25971248,2349,3226,-2627,11,-44,-88
25974458,2329,3055,-2686,28,77,-22
25977581,2027,2554,-2100,6,100,-46
25980704,2011,2762,-2222,-128,-135,77
25984087,2409,2713,-2396,-28,99,-7
25987235,2219,2982,-2314,51,95,45
25990247,2040,2600,-2216,-60,26,113
25993456,2109,2535,-2114,-41,11,89
25996579,2168,2709,-2305,-25,22,96
25999702,2222,2798,-2327,-1,41,107
26002825,2221,2832,-2380,6,65,127
26005862,2214,2854,-2339,-53,5,166
26008985,2291,2782,-2353,-59,48,183
26012219,2291,2686,-2329,-33,106,158
26015491,2106,2469,-2097,-51,68,141
26018701,2200,2612,-2222,-57,31,126
26021910,2315,2758,-2329,-17,58,124
26025120,2261,2733,-2299,-21,38,135
26028330,2313,2802,-2374,-37,15,164
26031540,2351,2716,-2319,-41,53,152
26034749,2298,2658,-2257,-35,44,144
26037982,2226,2529,-2262,-49,63,96
26041082,2231,2525,-2201,-38,37,55
26044240,2233,2620,-2285,-46,27,40
26047328,2116,2287,-1861,-45,-10,-64
26050625,2391,2985,-2552,-1,-41,15
26053748,2619,3089,-2698,33,47,18
26056784,2496,3241,-2522,44,73,78
26059820,2135,2415,-2237,-78,-5,125
26063132,2252,2549,-2204,-42,45,-33
26066240,2188,2369,-2297,-42,26,-77
26069449,2210,2506,-2132,-1,77,-133
26072659,2117,2673,-2131,-16,-54,-100
26076042,2434,2920,-2410,6,-62,-63
26079165,2420,2938,-2438,69,-16,-51
26082375,2250,2743,-2348,58,1,-32
26085411,2267,2665,-2387,16,-36,-50
26088646,2241,2553,-2322,0,5,-117
26091657,2177,2492,-2294,-10,8,-187
26094867,2168,2509,-2245,2,9,-212
26097903,2215,2742,-2204,8,-21,-198
26101113,2270,2901,-2338,36,-19,-163
26104410,2286,2944,-2445,49,-27,-129
26107706,2210,2740,-2370,42,-18,-110
26111003,2116,2589,-2265,13,-36,-130
26114324,2163,2525,-2298,7,-33,-156
26117509,2141,2598,-2265,10,-1,-199
26120719,2180,2773,-2324,-2,-32,-184
26124015,2243,2894,-2371,5,-3,-150
26127138,2232,2960,-2388,13,-3,-104
26130348,1827,2104,-1896,-16,15,-124
26133644,2317,3165,-2639,26,-65,-76
26136877,2291,2818,-2650,50,66,-65
26139977,1977,2655,-1972,34,73,-102
26143187,1997,2625,-2163,-100,-127,4
26146522,2384,2664,-2392,29,113,-97
26149693,2080,2921,-2331,33,55,-1
26152729,2068,2686,-2243,-48,14,59
26155852,2162,2724,-2237,-22,13,63
26158975,2128,2727,-2279,-25,6,70
26162060,2201,2709,-2326,6,35,85
26164961,2138,2679,-2284,9,59,81
26167911,2138,2757,-2243,-36,-1,111
26171120,2291,2820,-2384,-49,20,126
26174330,2319,2822,-2409,-13,92,131
26177540,2116,2595,-2156,-47,59,140
26180750,2216,2686,-2287,-53,20,141
26183959,2263,2719,-2330,-30,73,129
26187194,2199,2661,-2204,-23,38,124
26190379,2258,2719,-2303,-39,36,146
26193589,2280,2713,-2282,-37,46,137
26196798,2307,2764,-2356,-39,53,148
26200008,2288,2688,-2372,-47,55,131
26203218,2236,2616,-2267,-46,56,112
26206428,2252,2671,-2255,-60,25,106
26209637,2287,2666,-2337,-42,43,89
26212785,2248,2632,-2244,-35,40,72
26215883,1973,2065,-1867,-69,4,-26
26219006,2261,2657,-2139,-14,-54,-39
26222303,2782,3602,-3201,55,9,70
26225252,2448,3014,-2588,61,197,91
26228375,1976,2591,-2078,-83,-16,139
26231672,2287,2191,-2191,-146,-32,57
26234968,2287,2586,-2262,24,81,-97
26238115,2138,2521,-2242,-8,56,-68
26241214,2111,2509,-2008,-38,-21,-78
26244511,2270,2813,-2201,-28,-96,-52
26247842,2456,2965,-2509,62,-16,-37
26251017,2286,2775,-2386,90,37,-31
26254140,2197,2623,-2357,-2,-56,-25
26257350,2301,2565,-2349,-30,-16,-84
26260646,2223,2526,-2344,-6,50,-171
26263904,2106,2455,-2076,-4,18,-207
26267066,2185,2695,-2173,-4,-29,-213
26270362,2336,2971,-2430,34,-23,-170
26273659,2296,2971,-2382,58,-13,-117
26276955,2184,2747,-2373,36,-42,-94
26280165,2148,2525,-2261,11,-26,-119
26283462,2170,2543,-2254,3,-29,-162
26286675,2136,2561,-2223,5,9,-197
26289732,2138,2671,-2250,0,-20,-197
26292917,2200,2960,-2418,-1,-22,-162
26296214,2297,2983,-2494,24,-6,-104
26299424,1905,2252,-1962,-3,5,-136
26302547,2312,3146,-2578,18,-94,-75
26305756,2396,2898,-2749,54,53,-55
26308879,1996,2598,-2035,59,114,-99
26312114,1879,2597,-2089,-87,-116,-3
26315386,2333,2574,-2349,13,88,-108
26318595,2150,2969,-2355,50,58,-29
26321718,2121,2760,-2300,-32,1,42
26324755,2143,2750,-2268,-10,14,56
26327878,2125,2673,-2271,-25,-4,65
26331001,2191,2707,-2359,1,28,68
26333950,2190,2678,-2316,18,52,61
26337010,2120,2688,-2191,-26,19,78
26340109,2259,2796,-2384,-47,21,96
26343232,2339,2863,-2456,-10,88,109
26346442,2098,2590,-2174,-39,68,113
26349687,2204,2677,-2250,-56,13,126
26352862,2321,2727,-2373,-35,53,115
26356071,2188,2662,-2255,-13,49,109
26359281,2219,2733,-2303,-46,21,134
26362539,2278,2715,-2327,-39,40,125
26365701,2283,2765,-2305,-41,55,128
26368910,2291,2732,-2313,-52,43,130
26372120,2274,2627,-2280,-45,66,108
26375330,2238,2640,-2272,-55,30,106
26378540,2314,2681,-2281,-47,43,91
26381663,2268,2617,-2251,-35,39,76
26384786,1884,1845,-1600,-59,-22,-56
26388107,2643,3426,-2728,-5,-90,4
26391118,2757,3399,-3099,75,137,107
26394328,2144,2774,-2149,37,172,104
26397538,2014,2435,-2101,-185,-126,175
26401008,2421,2484,-2263,-22,121,-60
26404304,2195,2627,-2241,11,61,-62
26407427,2053,2359,-2010,-57,32,-58
26410637,2138,2603,-2025,-41,-81,-52
26413958,2437,3000,-2510,13,-59,-23
26417143,2505,3013,-2529,88,12,-14
26420266,2220,2708,-2289,48,19,-5
26423303,2177,2581,-2291,-38,-63,-23
26426599,2356,2623,-2454,-3,48,-120
26429809,2112,2417,-2136,7,61,-182
26432932,2076,2452,-2070,-15,0,-197
26436142,2277,2857,-2313,1,-49,-176
26439375,2354,2996,-2433,68,14,-131
26442561,2238,2912,-2397,66,-33,-77
26445771,2159,2668,-2382,36,-46,-67
26448981,2170,2497,-2293,20,-28,-113
26452312,2134,2525,-2252,16,-23,-159
26455574,2170,2569,-2220,5,0,-189
26458610,2211,2782,-2264,11,-20,-185
26461955,2280,3012,-2473,8,-29,-134
26465116,2288,2949,-2503,38,10,-86
26468239,2105,2676,-2234,16,2,-71
26471275,1668,1663,-1616,-30,-51,-189
26474659,2426,3253,-2819,46,-49,-104
26477955,2323,2851,-2742,78,107,-85
26481165,1975,2758,-1958,-24,-46,-45
26484461,2257,2556,-2419,-135,-106,5
26487782,2384,2929,-2363,55,145,-101
26491054,2069,2864,-2332,-22,9,36
26494091,2069,2484,-2182,-50,15,25
26497214,2090,2585,-2131,-30,-9,26
26500337,2288,2888,-2518,-15,-20,48
26503546,2276,2817,-2393,27,65,49
26506583,2068,2689,-2208,2,43,83
26509532,2243,2858,-2400,-71,-24,133
26512853,2364,2830,-2476,-33,70,123
26516038,2129,2557,-2199,-38,100,109
26519335,2113,2506,-2158,-68,16,100
26522545,2259,2737,-2333,-41,52,99
26525668,2267,2779,-2299,-4,70,107
26528791,2237,2807,-2314,-25,32,137
26532000,2306,2782,-2392,-37,33,163
26535210,2280,2710,-2305,-41,62,150
26538443,2257,2657,-2290,-55,28,144
26541630,2239,2528,-2288,-52,77,102
26544839,2190,2565,-2175,-63,25,68
26547962,2342,2793,-2344,-54,23,80
26551085,2351,2776,-2347,-25,52,76
26554243,2230,2692,-2197,-35,33,83
26557331,1962,1958,-1802,-76,1,20
26560368,2174,2429,-1987,-29,-28,-86
26563725,2774,3710,-3108,50,32,60
26566700,2499,3036,-2729,57,215,55
26569823,1919,2624,-2031,-118,-59,105
26573207,2317,2185,-2137,-154,-42,15
26576503,2404,2680,-2229,48,92,-111
26579713,2075,2522,-2217,-10,36,-49
26582923,2017,2481,-1944,-41,-20,-73
26586222,2283,2880,-2291,-26,-123,-39
26589627,2494,2961,-2539,81,23,-47
26592725,2193,2769,-2320,93,17,-46
26595848,2184,2672,-2316,-16,-59,-20
26599145,2348,2628,-2392,-21,-12,-83
26602441,2242,2551,-2290,15,57,-151
26605651,2096,2428,-2086,-6,6,-182
26608774,2213,2688,-2217,20,-5,-185
26612008,2277,2938,-2394,48,-33,-148
26615280,2260,2928,-2410,70,-17,-100
26618577,2218,2757,-2400,41,-33,-80
26621787,2165,2563,-2291,16,-28,-95
26624996,2194,2616,-2320,2,-31,-122
26628206,2167,2556,-2289,11,15,-162
26631416,2119,2678,-2181,-1,-7,-176
26634626,2237,2947,-2432,4,-38,-131
26637859,2289,2957,-2473,22,11,-86
26640958,2143,2762,-2266,28,7,-48
26643995,2104,2621,-2251,-12,-28,-39
26647291,2182,2595,-2328,14,12,-66
26650414,1931,2245,-2026,3,39,-103
26653537,2265,3014,-2312,-5,-62,-121
26656868,2438,3248,-2782,9,-15,0
26659783,2249,2764,-2409,44,162,1
26662868,2006,2918,-2261,-30,-16,80
26666029,2248,2466,-2313,-54,44,44
26669152,2160,2708,-2198,38,102,2
26672188,2025,2544,-2221,-46,-9,59
26675311,2136,2543,-2166,-40,46,31
26678434,2186,2785,-2303,-20,-8,54
26681557,2366,3031,-2555,-23,0,101
26684680,2385,2975,-2447,14,55,124
26687828,2159,2684,-2276,-46,44,150
26691013,2234,2576,-2327,-80,11,132
26694223,2280,2574,-2327,-34,95,78
26697346,2106,2463,-2142,-36,76,47
26700469,2144,2634,-2181,-52,21,47
26703592,2360,2879,-2409,-39,13,72
26706715,2343,2920,-2430,-2,52,111
26709838,2285,2874,-2314,-40,17,144
26713072,2274,2593,-2339,-44,36,130
26716257,2225,2476,-2195,-49,57,77
26719380,2204,2520,-2244,-53,23,47
26722503,2281,2581,-2268,-48,41,4
26725540,2252,2749,-2242,-29,14,14
26728663,2311,2880,-2375,-37,10,49
26731786,2171,2439,-2126,-24,37,38
26734909,1912,1971,-1488,-53,-30,-131
26738315,2751,3800,-3080,25,-134,18
26741502,2673,3095,-3111,115,331,18
26744711,1727,2695,-1975,-58,-38,78
26747921,2279,2033,-2208,-222,-112,36
26751304,2462,2718,-2176,50,147,-170
26754601,2063,2613,-2292,-17,10,-41
26757846,2110,2471,-1970,-38,0,-77
26760934,2155,2767,-2145,-21,-99,-38
26764278,2439,2963,-2541,54,-21,-34
26767440,2392,2880,-2435,109,29,-49
26770650,2095,2638,-2308,-7,-46,-33
26773859,2312,2636,-2384,-37,-37,-65
26777156,2333,2680,-2411,11,87,-136
26780366,2100,2458,-2108,-4,42,-161
26783575,2109,2622,-2146,-14,-14,-161
26786983,2326,2961,-2435,31,-16,-123
26790255,2250,2899,-2360,79,12,-72
26793378,2203,2808,-2385,33,-56,-32
26796588,2190,2584,-2347,12,-19,-50
26799798,2216,2612,-2296,10,-15,-77
26803007,2204,2598,-2301,1,12,-96
26806044,2160,2564,-2198,-5,10,-120
26809253,2223,2886,-2348,-4,-9,-97
26812401,2330,2983,-2497,13,-6,-52
26815499,2212,2791,-2337,28,38,-12
26818622,2076,2611,-2155,-5,-14,-6
26821745,2182,2610,-2255,-8,-8,-21
26824868,1896,1937,-1916,-7,34,-137
26828078,2360,3267,-2720,29,-37,-32
26831288,2408,3023,-2799,12,55,15
26834324,2121,2827,-2132,15,117,2
26837384,2027,2676,-2169,-115,-109,103
26840830,2395,2583,-2392,23,124,-15
26844040,2044,2638,-2229,13,55,34
26847076,2046,2437,-2141,-62,-1,52
26850199,2212,2716,-2214,-40,-9,29
26853322,2258,2843,-2374,-13,1,50
26856359,2297,2881,-2449,5,38,75
26859343,2271,2851,-2428,9,41,106
26862393,2226,2737,-2319,-53,16,119
26865554,2233,2612,-2279,-58,37,100
26868764,2216,2560,-2246,-35,84,52
26871887,2124,2470,-2093,-35,46,26
26875010,2228,2729,-2280,-35,19,29
26878133,2374,2897,-2405,-12,18,55
26881256,2272,2835,-2365,-1,47,76
26884292,2280,2769,-2326,-22,5,100
26887440,2260,2594,-2302,-36,39,74
26890538,2244,2572,-2245,-37,30,39
26893661,2206,2513,-2180,-43,39,2
26896697,2195,2642,-2237,-36,18,-25
26899907,2271,2816,-2384,-22,20,-16
26903117,2308,2860,-2359,-17,7,6
26906066,2277,2797,-2328,-14,22,22
26909189,2239,2663,-2305,-23,5,14
26912250,1832,1726,-1744,-48,34,-69
26915435,2100,2395,-1935,-2,-100,-170
26918819,2778,3644,-3291,66,8,-28
26921855,2350,3034,-2504,92,222,-31
26925065,1848,2746,-2121,-100,-90,70
26928361,2367,2312,-2196,-64,61,-82
26931571,2242,2733,-2253,56,89,-118
26934781,1955,2330,-2078,-33,37,-79
26938014,1980,2378,-1899,-49,-33,-108
26941374,2312,2977,-2420,-10,-88,-79
26944670,2452,3086,-2519,85,-8,-58
26947793,2206,2927,-2407,92,29,-15
26950916,2180,2778,-2410,-12,-61,32
26954126,2331,2708,-2393,-11,44,-30
26957336,2163,2438,-2180,7,84,-88
26960407,1976,2304,-1994,-13,47,-136
26963718,2132,2645,-2164,-9,-28,-134
26966965,2305,3011,-2438,63,11,-64
26970088,2293,3045,-2418,74,-1,5
26973037,2238,2960,-2445,42,-30,64
26976160,2209,2605,-2322,9,-7,49
26979110,2174,2508,-2292,11,13,13
26982146,2160,2438,-2239,-9,21,-36
26985269,2095,2451,-2188,-4,23,-86
26988417,2197,2794,-2352,-15,-12,-80
26991689,2348,3064,-2514,14,-5,-20
26994812,2321,2939,-2459,20,37,35
26997848,2199,2715,-2296,-12,-13,52
27001058,2247,2563,-2336,-20,16,21
27004181,2196,2497,-2303,6,57,-28
27007217,1777,1774,-1458,-52,24,-157
27010513,2459,3359,-2837,-12,-81,-36
27013834,2503,3053,-2896,40,209,-22
27017020,2046,3021,-2213,-23,-21,47
27020229,2356,2552,-2426,-156,-87,125
27023613,2367,2689,-2266,43,126,-7
27026736,1954,2540,-2229,-68,1,57
27029772,2084,2375,-2078,-73,20,-4
27032895,2178,2705,-2232,-26,10,-15
27036105,2374,3071,-2491,-29,-31,32
27039338,2428,3028,-2486,18,45,69
27042351,2184,2764,-2291,-9,45,110
27045474,2287,2700,-2276,-75,5,120
27048597,2366,2611,-2354,-35,76,48
27051720,2066,2346,-2132,-18,94,6
27054756,2056,2505,-2071,-59,0,-27
27057879,2325,2865,-2349,-32,-7,-4
27061037,2383,2966,-2404,10,46,23
27064140,2288,2948,-2278,9,17,69
27066988,2318,2819,-2382,-33,-11,104
27070284,2265,2552,-2269,-23,49,48
27073407,2153,2458,-2182,-39,23,5
27076443,2162,2481,-2224,-31,20,-44
27079653,2200,2667,-2235,-20,24,-76
27082863,2267,2892,-2334,-14,-21,-42
27086163,2375,2964,-2399,0,21,5
27089047,2308,2825,-2309,12,25,14
27092058,2235,2641,-2210,-25,7,6
27095008,2217,2561,-2228,-16,8,-20
27098131,1862,1878,-1898,-35,41,-181
27101427,2179,2814,-2372,4,-100,-178
27104724,2692,3544,-2981,41,-53,-141
27108020,2543,3473,-2639,100,92,-2
27111147,2041,2844,-2289,-81,-43,99
27114378,2269,2506,-2196,-62,4,4
27117303,2176,2378,-2260,-4,65,-67
27120426,2031,2369,-2160,2,72,-118
27123549,1903,2417,-1954,-20,-8,-129
27126845,2089,2664,-2107,-15,-103,-100
27130315,2423,3151,-2498,76,-36,-38
27133525,2357,3066,-2541,99,10,29
27136565,2281,2879,-2444,41,-8,77
27139621,2218,2583,-2317,-23,-14,41
27142807,2212,2443,-2322,-7,74,-56
27145930,2040,2275,-2123,-15,69,-130
27149227,2057,2519,-2101,-20,-10,-138
27152610,2311,3021,-2407,4,-17,-88
27155733,2358,3151,-2489,61,7,16
27158682,2294,3019,-2422,31,-1,86
27161790,2252,2734,-2399,0,-7,87
27164668,2160,2495,-2316,-15,35,37
27167791,2076,2343,-2212,-23,16,-33
27171001,2111,2469,-2211,-35,20,-79
27174211,2199,2730,-2289,-27,7,-81
27177334,2342,3060,-2482,-16,-1,-26
27180543,2376,3066,-2491,0,23,69
27183493,2274,2806,-2346,-14,45,89
27186619,2183,2582,-2267,-30,12,68
27189763,2144,2442,-2279,-28,48,9
27192775,2043,2310,-2120,-22,37,-47
27195985,2085,2484,-1958,-55,-13,-127
27199368,2481,3340,-2744,-8,-15,21
27202491,2470,3026,-2592,32,169,38
27205614,2080,2910,-2269,-58,-37,127
27208911,2320,2434,-2336,-106,4,103
27212145,2214,2557,-2190,10,114,-8
27215243,2004,2419,-2204,-60,4,2
27218193,2086,2434,-2104,-62,7,-33
27221316,2212,2813,-2245,-20,-15,-15
27224612,2435,3123,-2540,-8,-14,40
27227735,2388,3026,-2481,24,54,86
27230772,2182,2654,-2309,-23,31,106
27233981,2183,2544,-2270,-61,16,80
27237129,2232,2477,-2278,-27,67,-19
27240314,2074,2381,-2075,-18,43,-63
27243524,2182,2676,-2181,-41,-17,-74
27246820,2396,2983,-2428,-6,-10,-32
27250030,2388,2996,-2409,20,33,21
27253066,2284,2883,-2355,-7,-6,61
27256103,2239,2660,-2310,-29,24,30
27259226,2144,2459,-2171,-17,30,-26
27262501,2111,2464,-2158,-33,5,-68
27265558,2190,2584,-2222,-16,10,-110
27268855,2241,2844,-2309,-5,-1,-100
27272065,2338,2998,-2402,1,-15,-25
27275188,2362,2902,-2394,11,31,11
27278224,2205,2642,-2268,5,16,15
27281173,2166,2526,-2194,-17,10,-16
27284383,2119,2482,-2210,-1,12,-63
27287542,1676,1602,-1406,-30,6,-222
27290721,2398,3234,-2461,42,-158,-131
27294099,2751,3561,-3155,114,140,14
27297309,2102,3028,-2114,87,151,59
27300432,2061,2505,-2146,-189,-175,183
27303902,2293,2445,-2147,36,147,-88
27307112,1967,2424,-2236,17,33,-62
27310235,1916,2178,-1950,-48,27,-97
27313469,2060,2651,-2036,-18,-60,-96
27316741,2418,3129,-2475,28,-76,-1
27319864,2540,3238,-2615,117,26,55
27322987,2218,2885,-2426,44,18,110
27326110,2190,2546,-2362,-44,-15,98
27329320,2268,2462,-2353,-39,54,-6
27332443,2050,2267,-2187,-23,80,-112
27335739,2049,2426,-2042,-42,25,-142
27339060,2293,2996,-2391,-18,-27,-87
27342332,2423,3187,-2545,38,24,-2
27345368,2336,3073,-2448,39,-4,99
27348405,2222,2803,-2434,-9,2,115
27351441,2170,2423,-2321,-27,19,51
27354564,2120,2326,-2185,-35,28,-11
27357774,2099,2370,-2151,-43,18,-74
27360983,2160,2662,-2205,-32,17,-97
27364259,2356,3083,-2489,-19,-8,-11
27367403,2432,3162,-2541,13,36,63
27370439,2299,2884,-2364,-10,31,96
27373562,2140,2491,-2234,-36,10,70
27376685,2189,2407,-2246,-30,31,-5
27379808,1790,1760,-1797,-29,58,-104
27383105,2354,3082,-2406,-23,-69,-124
27386491,2574,3279,-2867,19,53,5
27389462,2233,3030,-2176,30,140,12
27392560,2087,2785,-2264,-124,-122,147
27396030,2425,2427,-2337,1,148,-16
27399153,2133,2599,-2197,-6,21,8
27402103,2007,2332,-2147,-66,25,-21
27405313,2115,2595,-2097,-26,-10,-72
27408609,2276,2933,-2347,-28,-42,-31
27411930,2493,3115,-2583,28,15,31
27414942,2362,3017,-2453,20,54,80
27417978,2204,2720,-2314,-60,-9,89
27421101,2241,2486,-2285,-49,45,28
27424224,2120,2356,-2175,-20,73,-43
27427434,2003,2322,-1986,-23,41,-89
27430644,2190,2724,-2177,-27,-34,-91
27433940,2392,3068,-2487,29,11,-24
27437088,2344,3021,-2374,24,9,32
27440013,2289,2841,-2387,-1,-3,78
27443049,2211,2533,-2258,-19,28,45
27446172,2114,2386,-2164,-18,30,-19
27449382,2100,2426,-2185,-33,6,-66
27452505,2162,2577,-2231,-3,18,-108
27455714,2246,2890,-2326,-2,-11,-62
27458924,2377,3037,-2480,17,-16,4
27462008,2133,2531,-2204,11,33,15
27465031,1972,2173,-1778,-18,-45,-93
27468293,2523,3272,-2722,23,-86,-44
27471503,2540,3123,-2930,95,137,2
27474539,1956,2648,-2055,-10,35,18
27477662,1946,2376,-2012,-171,-142,20
27481045,2476,2750,-2390,12,100,-110
27484342,2237,2868,-2403,43,56,-47
27487489,2079,2567,-2077,-25,5,10
27490501,2083,2544,-2074,-37,-63,12
27493711,2292,2815,-2427,13,-41,8
27496747,2346,2827,-2459,71,28,-6
27499783,2141,2720,-2305,45,21,4
27502733,2223,2721,-2366,-40,-52,21
27505943,2418,2835,-2557,-27,22,8
27508979,2268,2635,-2365,-5,101,-15
27512213,2059,2400,-2066,-20,65,-34
27515398,2144,2597,-2196,-30,-1,-33
27518608,2288,2803,-2365,35,28,-25
27521731,2185,2806,-2347,40,19,0
27524681,2205,2794,-2386,0,-45,39
27527717,2303,2721,-2367,-12,1,40
27530753,2272,2672,-2319,-7,16,27
27533789,2238,2607,-2323,-31,34,8
27536850,2171,2539,-2253,-29,31,-32
27540035,2194,2663,-2320,-39,18,-47
27543245,2286,2836,-2452,-14,4,-24
27546368,2253,2735,-2312,-6,31,-9
27549404,2160,2645,-2174,-24,-11,-2
27552614,2265,2701,-2337,-25,5,-9
27555650,2307,2713,-2362,0,39,-23
27558687,2145,2618,-2268,-13,45,-31
27561956,2137,2637,-2250,-48,-5,-39
27565141,2258,2722,-2324,-27,27,-47
27568316,2201,2683,-2264,-20,15,-45
27571526,2113,2442,-1855,-37,-6,-88
27574735,2466,3248,-2674,2,-46,15
27577772,2355,2816,-2565,30,106,30
27580895,2057,2718,-2057,-37,-15,26
27584104,2166,2382,-2232,-109,-67,21
27587425,2318,2713,-2265,15,92,-89
27590524,2141,2848,-2329,13,26,-22
27593647,2156,2668,-2207,-42,12,7
27596683,2197,2772,-2207,-17,-20,19
27599893,2323,2870,-2424,-11,3,34
27602929,2286,2758,-2370,37,52,21
27605965,2077,2624,-2184,3,33,20
27608915,2168,2624,-2306,-40,-28,16
27612149,2307,2700,-2340,-21,31,-15
27615334,2199,2669,-2255,3,51,-21
27618371,2152,2651,-2172,-25,14,-14
27621580,2254,2754,-2316,-10,5,9
27624530,2271,2789,-2334,11,43,13
27627566,2210,2727,-2277,4,4,20
27630429,2213,2663,-2295,-10,17,21
27633552,2175,2575,-2227,-11,8,-7
27636592,2220,2689,-2275,-17,9,-4
27639649,2228,2639,-2296,-7,24,-12
27642747,2009,2259,-1827,-25,18,-100
27646044,2206,2779,-2312,-8,-73,-52
27649254,2615,3356,-2890,56,49,16
27652290,2402,3163,-2627,49,85,97
27655326,1971,2516,-2117,-96,-34,108
27658623,2290,2494,-2284,-63,-4,13
27661793,2205,2480,-2281,-4,87,-47
27664872,2120,2525,-2143,-4,63,-50
27668027,2069,2618,-2086,-40,-16,-13
27671288,2262,2804,-2274,-11,-48,9
27674411,2432,3024,-2483,50,2,32
27677361,2310,2883,-2464,48,13,51
27680397,2215,2635,-2308,2,2,51
27683260,2221,2559,-2307,-40,-12,3
27686386,2287,2557,-2338,-29,62,-46
27689617,2143,2473,-2157,-22,68,-94
27692802,2139,2626,-2180,-32,20,-88
27696012,2312,2874,-2387,-1,5,-47
27699048,2302,2907,-2420,38,24,-9
27702084,2227,2839,-2328,10,-16,18
27705207,2209,2647,-2367,-2,-14,12
27708330,2188,2526,-2270,-12,4,-23
27711457,2168,2540,-2253,-12,9,-55
27714601,2215,2605,-2262,-23,2,-84
27717699,2237,2775,-2335,-13,18,-87
27720909,2276,2920,-2395,-6,4,-41
27723945,2297,2864,-2410,5,13,-7
27726895,2199,2683,-2254,-7,15,-11
27730018,2162,2547,-2228,-8,0,-34
27733054,2206,2609,-2278,-6,9,-60
27736090,2175,2618,-2267,9,28,-79
27739151,2177,2719,-2284,-15,-3,-76
27742336,2257,2843,-2372,-15,-2,-60
27745546,2287,2877,-2395,-12,17,-35
27748756,2222,2800,-2332,-9,17,-7
27751792,2012,2277,-2000,-45,9,-61
27754915,2303,3010,-2506,-3,-32,-33
27758125,2314,2836,-2542,10,51,-17
27761251,2100,2718,-2146,20,81,-43
27764418,2037,2723,-2211,-74,-73,27
27767584,2313,2638,-2320,-15,51,-36
27770826,2198,2858,-2317,21,80,-5
27773827,2106,2630,-2191,-34,9,37
27776863,2168,2626,-2154,-32,14,25
27779986,2201,2715,-2267,-15,0,18
27783022,2263,2782,-2349,2,32,27
27785972,2218,2757,-2316,17,34,28
27789032,2179,2772,-2289,-20,2,46
27792044,2287,2778,-2377,-33,4,61
27795080,2289,2740,-2345,-13,62,50
27798203,2163,2571,-2215,-18,49,47
27801326,2176,2605,-2180,-33,26,32
27804449,2242,2693,-2287,-9,25,28
27807486,2211,2732,-2314,0,33,28
27810435,2255,2791,-2331,-10,-3,50
27813583,2269,2676,-2319,-18,28,50
27816681,2303,2703,-2269,-18,14,47
27819804,2279,2663,-2302,-24,33,43
27822927,2206,2574,-2252,-18,34,14
27826050,1681,1541,-1410,-60,23,-119
27829347,2536,3439,-2672,33,-129,-26
27832643,2698,3303,-3160,100,174,75
27835853,1959,2769,-1838,57,154,61
27839000,2039,2411,-2143,-218,-210,181
27842446,2391,2582,-2204,47,171,-106
27845742,2042,2590,-2270,20,30,-24
27848865,2026,2268,-2036,-67,22,-45
27852075,2148,2727,-2139,-23,-83,-37
27855372,2445,3097,-2549,15,-60,11
27858495,2443,3035,-2476,99,32,24
27861534,2150,2718,-2297,31,1,51
27864527,2271,2649,-2395,-52,-39,45
27867690,2333,2573,-2389,-28,50,-43
27870935,2135,2403,-2191,-14,69,-121
27874196,2067,2518,-2119,-40,5,-153
27877406,2309,2934,-2398,-3,-18,-108
27880703,2339,3026,-2426,44,24,-60
27883826,2243,2923,-2353,29,-33,15
27886973,2233,2741,-2358,-1,-9,20
27889985,2193,2466,-2213,-5,6,-34
27893021,2130,2469,-2222,-19,6,-65
27896144,2152,2494,-2246,-21,10,-116
27899441,2166,2672,-2223,-13,14,-132
27902737,2289,3003,-2431,-11,-20,-57
27906034,2315,2948,-2416,20,31,-13
27909157,2161,2675,-2219,-5,8,6
27912044,2160,2562,-2217,-26,-12,-10
27915316,2216,2585,-2308,-5,24,-60
27918439,2106,2539,-2246,12,50,-86
27921562,2115,2653,-2259,-33,-23,-80
27924858,2297,2881,-2404,-19,2,-53
27927981,2256,2914,-2382,-5,30,-21
27931104,2110,2589,-2159,-15,10,7
27934141,2283,2826,-2193,-30,-16,-28
27937462,2315,2944,-2554,6,25,32
27940387,2174,2517,-2295,9,125,-21
27943510,2001,2643,-2138,-58,-62,20
27946719,2233,2479,-2288,-82,-23,-14
27950016,2401,2971,-2430,27,69,-37
27953139,2242,2929,-2377,-2,48,47
27956175,2169,2652,-2178,-37,23,71
27959298,2166,2647,-2201,-31,4,68
27962382,2258,2706,-2377,-8,27,43
27965371,2204,2629,-2253,22,75,18
27968407,2094,2620,-2248,-18,-10,25
27971651,2274,2800,-2360,-38,-8,48
27974740,2352,2817,-2377,-3,49,47
27977776,2209,2710,-2250,-7,58,62
27980812,2198,2631,-2256,-27,15,59
27983935,2230,2630,-2275,-19,39,48
27987083,2200,2629,-2306,-6,17,23
27990094,2204,2681,-2318,-4,13,22
27993131,2217,2674,-2297,-12,8,12
27996167,2244,2709,-2238,-12,10,21
27999290,2334,2819,-2400,-13,4,30
28002326,2275,2685,-2332,1,56,21
28005276,2214,2639,-2215,-13,12,11
28008399,2239,2641,-2337,-19,9,6
28011352,2263,2625,-2306,-7,25,-22
28014496,1697,1645,-1600,-30,28,-96
28017681,2283,2908,-2333,-10,-113,-128
28021151,2863,3738,-3297,97,25,-12
28024274,2429,3268,-2624,94,162,39
28027397,1923,2549,-2047,-90,-32,128
28030693,2246,2295,-2241,-112,-11,18
28033990,2228,2468,-2248,13,80,-98
28037137,2048,2465,-2172,-17,67,-93
28040323,2071,2536,-2049,-39,-35,-76
28043619,2263,2850,-2254,-44,-95,-48
28046916,2457,3034,-2510,67,-12,1
28049952,2234,2829,-2392,79,55,33
28052988,2178,2687,-2344,-10,-38,47
28056198,2280,2626,-2451,-50,-5,-7
28059321,2241,2464,-2266,-25,75,-86
28062632,2031,2340,-2017,-37,46,-143
28065827,2200,2681,-2165,-41,-18,-128
28069210,2361,3038,-2404,15,17,-70
28072372,2299,3057,-2411,46,13,-11
28075456,2217,2859,-2360,27,-7,42
28078493,2150,2607,-2341,-10,-2,19
28081616,2144,2471,-2211,-12,3,-25
28084739,2163,2496,-2245,-31,7,-66
28087886,2185,2578,-2172,-25,23,-96
28091071,2216,2845,-2280,-30,-3,-76
28094281,2370,3064,-2503,-1,7,-10
28097317,2299,2903,-2410,11,36,29
28100354,2143,2664,-2234,-12,-6,41
28103477,2143,2534,-2237,-26,4,1
28106426,2201,2525,-2298,3,35,-45
28109462,2141,2546,-2219,-11,22,-63
28112697,1948,2232,-1938,-44,-2,-84
28115882,2480,3392,-2595,-14,-45,-76
28119178,2514,3354,-2775,24,11,51
28122215,2206,2738,-2337,23,132,42
28125338,1958,2669,-2223,-110,-99,111
28128721,2208,2220,-2154,-55,65,-29
28131931,2199,2705,-2240,28,50,-59
28135054,2094,2575,-2229,-31,20,-19
28138288,2176,2735,-2156,-17,-20,-7
28141473,2373,3068,-2506,-12,-24,61
28144683,2382,2930,-2460,21,42,87
28147719,2188,2687,-2285,23,63,87
28150755,2129,2491,-2171,-48,-15,73
28153965,2194,2462,-2232,-23,43,-6
28157088,2195,2589,-2279,-9,52,-30
28160211,2197,2671,-2227,-11,15,-26
28163468,2319,2912,-2370,-11,-4,8
28166457,2353,2993,-2468,13,22,51
28169493,2288,2826,-2378,8,26,75
28172478,2254,2645,-2333,-4,18,72
28175479,2125,2410,-2174,-28,23,24
28178602,2155,2519,-2164,-27,11,-20
28181812,2241,2613,-2299,-14,31,-48
28185022,2234,2778,-2257,-3,17,-44
28188169,2341,2955,-2396,-13,-8,-3
28191268,2386,2917,-2462,2,13,36
28194217,2231,2709,-2319,1,41,36
28197167,1724,1598,-1612,-47,12,-51
28200376,2378,2988,-2459,-12,-82,-115
28203760,2454,2973,-2666,51,56,-91
28206883,2334,3248,-2373,64,103,-46
28210092,2139,2825,-2399,-89,-86,106
28213413,2324,2545,-2275,-46,74,-9
28216512,2214,2739,-2359,1,24,-16
28219548,2153,2466,-2293,-29,73,-45
28222758,1976,2407,-2011,-27,9,-73
28225881,2105,2572,-2118,-58,-87,-58
28229177,2388,2929,-2442,16,-30,-59
28232387,2313,3006,-2509,85,39,-24
28235510,2250,2971,-2396,-13,-44,49
28238744,2371,2800,-2487,-23,7,31
28241756,2201,2517,-2257,-20,84,-18
28244966,2038,2295,-2034,-33,44,-75
28248176,2105,2464,-2092,-49,17,-113
28251472,2195,2757,-2262,6,11,-104
28254595,2293,3033,-2397,22,0,-40
28257631,2327,3003,-2472,22,-12,24
28260754,2233,2776,-2364,13,19,42
28263838,2201,2654,-2329,-13,-15,43
28267000,2170,2448,-2223,-25,26,-3
28270123,2100,2405,-2154,-24,30,-65
28273368,2145,2610,-2189,-29,0,-75
28276456,2317,2933,-2433,-7,5,-51
28279492,2297,2941,-2390,17,33,2
28282442,2228,2829,-2290,-2,-5,40
28285478,2260,2724,-2339,-4,14,43
28288539,2179,2565,-2280,0,28,9
28291377,2084,2471,-2181,-9,37,-23
28294500,2161,2536,-2199,-25,1,-50
28297623,1784,1764,-1641,-45,35,-124
28300920,2570,3590,-2744,13,-74,-61
28304129,2593,3362,-2923,52,116,53
28307252,2078,2826,-1995,24,71,42
28310289,2051,2454,-2219,-147,-130,127
28313783,2323,2379,-2199,-2,112,-56
28316968,2096,2653,-2221,4,12,-19
28320005,2065,2468,-2207,-56,7,-28
28323128,2270,2947,-2323,-13,-22,-19
28326424,2379,3078,-2517,-9,-20,39
28329547,2351,2894,-2432,32,40,73
28332583,2215,2722,-2333,15,42,90
28335620,2172,2540,-2247,-47,-1,69
28338767,2218,2466,-2240,-26,47,-13
28341952,2181,2528,-2237,-5,57,-36
28345075,2125,2582,-2176,-25,19,-46
28348285,2333,2920,-2384,-15,-21,-4
28351495,2405,3009,-2509,9,30,41
28354444,2265,2810,-2340,18,34,64
28357481,2206,2637,-2298,-22,7,72
28360517,2178,2434,-2223,-27,18,26
28363687,2178,2497,-2240,-18,28,-32
28366850,2210,2587,-2259,-22,4,-54
28369973,2281,2767,-2294,-14,19,-52
28373186,2332,2964,-2437,-9,-5,-9
28376254,2266,2824,-2358,-13,29,26
28379342,1777,1682,-1436,-42,-4,-126
28382638,2520,3405,-2758,28,-92,9
28385674,2729,3306,-3198,83,226,15
28388822,1879,2712,-1945,22,89,17
28391834,2071,2213,-2151,-228,-195,82
28395217,2488,2598,-2222,4,150,-134
28398427,2174,2872,-2359,-3,21,-26
28401550,2046,2440,-2109,-48,27,-23
28404759,2119,2674,-2112,-42,-70,-12
28408056,2356,2905,-2477,-9,-63,17
28411182,2390,2855,-2408,66,32,-11
28414326,2127,2669,-2271,5,-21,10
28417338,2239,2716,-2342,-61,-23,7
28420461,2375,2743,-2405,-15,51,-51
28423671,2142,2557,-2232,-17,88,-63
28426881,2029,2520,-2078,-31,25,-82
28430090,2206,2727,-2207,-27,1,-70
28433213,2286,2859,-2396,36,17,-37
28436340,2229,2862,-2341,42,5,-1
28439310,2180,2771,-2351,5,-29,18
28442322,2189,2624,-2295,-9,2,-2
28445272,2194,2648,-2299,-12,-5,-23
28448481,2210,2562,-2234,-17,35,-37
28451691,2161,2599,-2191,-17,18,-72
28454901,2223,2860,-2388,-14,2,-45
28458024,2301,2889,-2478,14,19,-15
28461150,2163,2732,-2277,14,21,-2
28464231,2197,2635,-2214,-15,-26,-6
28467393,2271,2650,-2335,8,17,-27
28470429,2210,2658,-2278,17,34,-42
28473552,2157,2649,-2225,-5,17,-35
28476710,2188,2606,-2280,-28,-1,-36
28479885,2134,2498,-1967,0,-28,-79
28483008,2443,3309,-2731,24,-15,34
28486134,2230,2672,-2318,49,154,17
28489278,1918,2661,-2167,-35,-33,50
28492464,2194,2295,-2222,-113,-67,37
28495760,2322,2696,-2294,44,89,-61
28498883,2098,2697,-2303,-13,8,0
28501833,2116,2613,-2206,-34,4,1
28504782,2252,2877,-2365,-16,-19,34
28507992,2337,2888,-2483,-5,23,61
28511028,2265,2744,-2334,14,39,51
28514089,2104,2575,-2243,-18,29,47
28517187,2212,2566,-2275,-42,4,27
28520224,2269,2681,-2331,-25,46,-8
28523347,2182,2648,-2284,-8,45,-13
28526470,2174,2664,-2251,-31,27,-11
28529679,2289,2871,-2380,-18,-3,30
28532802,2314,2806,-2361,3,45,44
28535752,2204,2670,-2258,-12,16,45
28538899,2184,2554,-2225,-37,16,35
28541998,2217,2561,-2256,-31,19,-1
28545121,2225,2646,-2270,-26,32,-16
28548331,2228,2675,-2270,-27,11,-22
28551540,2268,2789,-2340,-20,16,-9
28554663,2274,2874,-2411,-18,6,16
28557700,2274,2759,-2322,-11,37,26
28560823,2141,2521,-2177,-29,15,13
28564005,1663,1333,-992,-80,-23,-233
28567242,2775,3954,-3204,56,-95,13
28570365,2791,3367,-3338,131,355,8
28573488,1734,2930,-1974,-20,-17,75
28576736,2306,2127,-2315,-269,-190,130
28580168,2504,2738,-2172,103,165,-113
28583551,1921,2431,-2222,-39,-10,9
28586699,2007,2238,-1803,-68,34,-66
28589884,2102,2778,-2208,-33,-97,-42
28593180,2487,3140,-2574,48,-15,3
28596217,2462,3062,-2469,114,34,18
28599340,2091,2752,-2289,-13,-35,61
28602549,2321,2681,-2447,-62,-29,44
28605759,2307,2590,-2424,-4,115,-42
28608969,1968,2264,-2004,-33,50,-111
28612290,2111,2575,-2145,-37,-6,-129
28615562,2348,2994,-2414,21,4,-89
28618598,2309,3041,-2379,77,31,-26
28621721,2235,2965,-2405,45,-36,42
28624844,2271,2721,-2388,14,-23,71
28627967,2227,2513,-2268,-1,14,15
28631003,2176,2504,-2263,-8,10,-21
28634126,2113,2384,-2148,-15,42,-84
28637361,2166,2682,-2267,-13,-16,-95
28640633,2370,3079,-2550,-2,-18,-44
28643842,2380,2989,-2517,41,34,24
28646879,2155,2682,-2240,0,-3,49
28649828,2185,2555,-2260,-16,-22,20
28653038,2250,2533,-2349,25,67,-39
28656161,2071,2499,-2207,12,35,-74
28659284,2146,2646,-2255,-30,-11,-72
28662627,2293,2813,-2420,-17,14,-63
28665790,2319,2918,-2400,1,26,-25
28668826,2059,2390,-2019,-32,0,-27
28671949,2394,3078,-2511,-1,-18,3
28674986,2291,2794,-2572,-4,32,29
28678057,2081,2514,-2174,1,101,-24
28681145,2001,2545,-2161,-66,-49,-3
28684355,2228,2457,-2288,-71,-17,-45
28687676,2370,2931,-2382,13,59,-48
28690774,2205,2826,-2357,-23,21,34
28693897,2206,2692,-2223,-39,19,43
28697020,2195,2656,-2247,-39,-7,55
28700143,2274,2675,-2346,-17,37,33
28703266,2163,2572,-2264,14,62,-5
28706302,2086,2636,-2244,-31,-6,-2
28709425,2235,2752,-2386,-36,-1,12
28712573,2309,2832,-2347,-12,63,14
28715671,2226,2726,-2226,-28,25,41
28718794,2240,2719,-2283,-39,28,47
28721917,2201,2652,-2285,-20,33,26
28725040,2161,2626,-2242,-20,27,8
28728077,2214,2678,-2283,-19,-4,-3
28731200,2193,2614,-2231,-17,23,-15
28734409,2266,2841,-2307,-22,-10,-2
28737644,2329,2819,-2343,-16,26,9
28740655,2262,2720,-2267,-8,39,4
28743605,2181,2684,-2279,-22,19,13
28746728,2219,2648,-2330,-28,11,-2
28749851,2068,2374,-2133,-14,48,-42
28753061,1748,1718,-1308,-27,-128,-210
28756531,2916,4106,-3397,69,-92,3
28759567,2521,3070,-2779,143,290,45
28762824,1774,2816,-1966,-3,24,110
28765900,2285,2143,-2291,-226,-156,133
28769370,2255,2638,-2180,70,138,-108
28772666,1964,2449,-2218,-26,7,-37
28775789,1984,2346,-1912,-43,15,-76
28779034,2144,2807,-2110,-20,-98,-20
28782295,2522,3173,-2622,58,-46,35
28785418,2411,3026,-2507,114,45,53
28788566,2139,2705,-2340,15,-16,84
28791664,2282,2524,-2356,-59,-14,46
28794874,2289,2520,-2423,-10,102,-69
28798171,1985,2219,-2002,-21,81,-120
28801467,2112,2606,-2143,-34,-26,-119
28804850,2396,3053,-2438,49,23,-41
28807973,2282,3043,-2391,73,14,28
28811010,2235,2864,-2430,34,-34,95
28814157,2207,2529,-2362,3,-2,76
28817082,2160,2419,-2281,0,17,18
28820032,2157,2416,-2256,-26,3,-31
28823155,2159,2447,-2172,-16,31,-81
28826364,2222,2736,-2299,-20,0,-92
28829487,2383,3066,-2548,5,-9,2
28832350,2396,3005,-2502,21,33,35
28835386,2222,2681,-2295,15,27,56
28838447,2180,2482,-2249,-35,-10,17
28841632,2251,2485,-2327,1,39,-50
28844669,2124,2489,-2204,-6,47,-94
28847792,2166,2662,-2303,-38,-21,-95
28851088,2328,2886,-2462,-42,4,-67
28854211,2332,2914,-2396,-12,30,-37
28857421,2032,2275,-1878,-38,-13,-61
28860717,2421,3145,-2709,-7,-30,31
28863887,2228,2566,-2442,17,132,0
28866877,1997,2561,-2014,-26,23,-39
28870086,2073,2364,-2187,-137,-102,-5
28873470,2335,2788,-2242,10,87,-132
28876679,2229,2995,-2387,2,10,-32
28879750,2231,2838,-2289,-40,12,26
28882839,2190,2757,-2251,-12,22,35
28885962,2195,2722,-2301,-41,-23,41
28889201,2262,2638,-2316,16,55,-8
28892208,2068,2520,-2168,-5,40,-42
28895331,2183,2711,-2293,-51,-42,-19
28898627,2364,2863,-2435,-28,28,-21
28901837,2237,2786,-2295,6,63,-11
28904873,2176,2755,-2188,-28,16,21
28907996,2241,2747,-2337,-15,21,29
28911123,2174,2635,-2265,5,49,5
28914006,2132,2608,-2207,-11,-14,-1
28917192,2203,2637,-2266,-17,12,-6
28920315,2212,2693,-2252,-3,18,-22
28923438,2274,2829,-2324,-18,4,10
28926474,2297,2827,-2344,-8,21,21
28929510,2226,2745,-2248,1,55,18
28932460,2201,2719,-2280,-16,0,34
28935496,2212,2651,-2313,-16,26,21
28938643,2158,2558,-2196,5,29,-4
28941568,2166,2624,-2214,-16,2,-11
28944691,2305,2766,-2358,-2,-7,-6
28947728,2141,2485,-2198,-21,66,-79
28950937,2476,3435,-2395,10,-153,-127
28954321,3004,4165,-3648,72,-60,118
28957530,2266,2579,-2484,132,388,55
28960740,1574,2702,-1981,-230,-253,210
28964258,2510,2044,-2265,-86,113,-57
28967507,2268,2862,-2240,103,115,-103
28970890,2007,2331,-2119,-71,3,-2
28973926,2237,2802,-2152,-16,-28,-24
28977223,2261,2995,-2429,-10,-82,39
28980467,2491,3046,-2585,83,2,65
28983382,2329,2845,-2492,93,44,64
28986422,2128,2540,-2250,-24,-22,62
28989652,2281,2522,-2369,-61,36,-24
28992838,2230,2490,-2275,-10,108,-87
28996134,2039,2401,-2005,-26,64,-116
28999431,2196,2750,-2271,-17,-32,-70
29002727,2396,3062,-2529,47,40,-15
29005850,2229,2905,-2337,55,2,29
29008800,2227,2716,-2370,3,-41,61
29011860,2214,2463,-2327,-10,-4,15
29014959,2195,2510,-2213,-6,24,-29
29018082,2186,2509,-2263,-29,0,-60
29021205,2189,2544,-2240,-11,20,-100
29024501,2286,2950,-2440,-16,-14,-62
29027798,2353,3027,-2554,9,0,-6
29030661,2262,2756,-2351,11,38,17
29033697,2118,2488,-2132,-21,-12,1
29036844,2242,2529,-2253,-33,-13,-45
29040116,2241,2565,-2340,11,49,-111
29043326,2111,2638,-2224,-15,17,-108
29046623,2231,2852,-2411,-46,-32,-76
29049919,2263,2782,-2372,-25,32,-64
29053129,2132,2599,-2043,-23,-30,-70
29056425,2408,3095,-2707,-6,-16,18
29059548,2203,2548,-2315,13,126,-26
29062859,1921,2556,-2047,-39,-1,-26
29065968,2173,2454,-2251,-89,-15,-62
29069264,2278,2832,-2273,32,90,-104
29072474,2133,2923,-2299,-21,0,-25
29075597,2251,2848,-2329,-38,-8,27
29078720,2220,2782,-2310,-20,26,38
29081882,2190,2737,-2302,-23,3,49
29084879,2237,2636,-2294,-4,48,20
29087940,2131,2543,-2200,-7,32,-5
29090952,2133,2673,-2229,-41,-6,5
29093988,2318,2855,-2411,-19,21,11
29097111,2216,2756,-2255,-6,64,24
29100147,2211,2765,-2194,-19,10,54
29103270,2276,2814,-2353,-25,9,68
29106307,2203,2653,-2275,5,54,55
29109256,2094,2594,-2151,-12,21,30
29112404,2188,2634,-2274,-21,-5,29
29115502,2210,2679,-2246,-13,26,14
29118625,2233,2756,-2314,-8,4,32
29121575,2280,2836,-2320,-15,23,42
29124698,2286,2775,-2362,3,38,44
29127647,2235,2742,-2288,-14,28,49
29130770,1778,1692,-1702,-39,25,-31
29133980,2251,2822,-2302,0,-60,-83
29137127,2597,3307,-2746,35,-70,-56
29140313,2548,3378,-2734,89,127,26
29143436,2091,2789,-2284,-49,7,130
29146559,2117,2405,-2153,-112,-34,72
29149855,2345,2523,-2429,-14,62,-15
29153065,2213,2519,-2272,19,120,-64
29156275,1906,2384,-1908,-25,7,-53
29159398,2096,2571,-2080,-35,-88,-37
29162741,2411,2976,-2462,52,-25,-22
29165904,2375,2996,-2531,91,27,21
29168940,2289,2886,-2449,29,-33,56
29172063,2269,2632,-2404,-22,0,32
29175099,2269,2602,-2452,-17,46,-20
29178309,2132,2387,-2238,-18,81,-107
29181609,2046,2430,-2080,-33,9,-135
29184850,2274,2815,-2296,-12,-11,-109
29188223,2388,3024,-2453,52,4,-37
29191235,2315,2970,-2458,47,3,15
29194184,2216,2744,-2388,-1,-28,35
29197307,2241,2580,-2398,-8,4,6
29200170,2177,2466,-2286,-13,23,-45
29203380,2104,2422,-2187,-23,20,-95
29206590,2183,2645,-2255,-34,-9,-116
29209886,2303,2935,-2404,-8,6,-90
29212947,2318,2985,-2459,-2,17,-11
29216045,2246,2838,-2380,-6,5,20
29218995,2223,2633,-2305,-21,10,10
29222118,2166,2536,-2266,-7,20,-35
29225241,2127,2546,-2267,-14,29,-65
29228451,2165,2568,-2281,-30,12,-80
29231660,2214,2754,-2307,-42,4,-73
29234783,2293,2924,-2373,-25,10,-32
29238018,2262,2901,-2341,-22,39,7
29241029,2187,2725,-2246,-28,23,21
29244152,2147,2575,-2222,-40,32,15
29247275,1685,1525,-1455,-69,18,-102
29250572,2458,3377,-2678,-5,-57,-55
29253782,2497,3164,-2916,38,125,-2
29256905,2052,2939,-2032,5,57,9
29259767,1995,2816,-2185,-180,-152,126
29263284,2445,2645,-2295,-1,158,-26
29266447,2136,2776,-2223,25,62,27
29269483,2016,2404,-2141,-64,33,46
29272606,2125,2587,-2104,-26,-17,-2
29275816,2288,2910,-2424,-9,-24,27
29278939,2325,2910,-2376,36,26,37
29281975,2223,2811,-2312,31,39,78
29285047,2274,2790,-2303,-46,-27,99
29288246,2324,2669,-2332,-32,44,70
29291344,2185,2552,-2197,-3,86,26
29294381,2062,2376,-2035,-27,20,-18
29297590,2209,2736,-2296,-20,-7,-21
29300800,2318,2905,-2411,30,15,4
29303750,2262,2916,-2365,31,12,34
29306786,2274,2837,-2364,10,-7,74
29309822,2272,2620,-2280,-7,23,66
29312883,2237,2581,-2301,-1,29,40
29315895,2198,2501,-2240,-13,27,-2
29319018,2158,2465,-2169,-2,29,-49
29322141,2231,2750,-2293,-8,-12,-51
29325350,2367,2921,-2446,14,0,-14
29328387,2296,2796,-2329,18,20,13
29331423,2265,2668,-2253,-4,-13,25
29334546,2303,2603,-2317,-6,15,1
29337520,2204,2548,-2283,11,35,-38
29340618,1767,1719,-1594,-34,10,-163
29343915,2316,3021,-2453,0,-111,-165
29347211,2766,3594,-3145,82,105,-28
29350421,2190,3001,-2240,71,120,16
29353544,2069,2510,-2149,-146,-126,112
29357014,2358,2375,-2250,1,96,-79
29360050,2153,2519,-2277,7,52,-80
29363134,2019,2328,-2141,-36,30,-100
29366383,2043,2549,-2037,-29,-42,-106
29369766,2321,3011,-2452,-16,-106,-61
29373150,2480,3147,-2598,87,23,1
29376099,2234,2835,-2381,36,20,47
29379135,2200,2630,-2321,-49,-25,51
29382345,2296,2545,-2423,-45,35,-21
29385590,2096,2400,-2215,-15,104,-92
29388876,1966,2327,-1995,-50,11,-143
29392148,2244,2857,-2338,-26,-25,-112
29395531,2359,3071,-2452,24,17,-53
29398654,2274,3040,-2442,39,5,24
29401604,2272,2834,-2370,-5,-12,72
29404727,2206,2578,-2291,-21,20,31
29407850,2099,2448,-2256,-38,28,-25
29411063,2093,2438,-2221,-35,18,-74
29414294,2105,2623,-2210,-30,26,-99
29417479,2255,2988,-2381,-25,-16,-54
29420775,2384,3082,-2509,2,38,31
29423725,2275,2881,-2337,2,29,64
29426674,2119,2561,-2166,-39,25,37
29429797,2265,2753,-2248,-22,-22,-46
29433094,2310,2889,-2578,20,28,-6
29436133,2115,2547,-2225,17,119,-44
29439364,2071,2828,-2182,-43,-17,-1
29442550,2318,2710,-2384,-74,-9,23
29445673,2420,2992,-2394,44,120,14
29448796,2118,2695,-2239,-10,39,80
29451919,2096,2455,-2134,-46,20,69
29455042,2111,2494,-2204,-30,-12,30
29458251,2238,2695,-2345,-10,9,11
29461291,2276,2771,-2328,22,43,11
29464371,2234,2795,-2281,-16,-11,52
29467534,2377,2881,-2444,-42,-2,90
29470657,2330,2747,-2382,-2,81,78
29473693,2155,2493,-2131,-20,64,55
29476816,2145,2466,-2159,-32,14,33
29479939,2217,2586,-2280,-14,19,-1
29483062,2223,2727,-2283,15,21,-9
29486137,2305,2834,-2333,-4,0,33
29489072,2354,2833,-2388,1,4,45
29491910,2316,2769,-2363,-9,21,61
29494947,2293,2701,-2329,-12,22,61
29498070,2229,2534,-2300,-18,53,4
29501106,2161,2470,-2183,-18,6,-37
29504229,2202,2646,-2294,-27,-1,-43
29507439,2280,2771,-2366,4,8,-39
29510388,2280,2772,-2298,-5,7,-22
29513449,2293,2801,-2359,-12,-16,0
29516547,2339,2755,-2432,-1,26,-7
29519584,2218,2614,-2286,6,33,-23
29522620,2147,2543,-2252,-23,10,-47
29525830,2185,2574,-2270,-22,-4,-80
29529039,2207,2628,-2251,-7,11,-107
29532249,2019,2331,-1920,-23,-47,-181
29535632,2325,2998,-2376,14,-80,-146
29538953,2701,3523,-3093,78,97,-1
29541965,2323,3021,-2564,40,111,31
29545088,1959,2371,-2152,-129,-90,41
29548385,2217,2266,-2203,-55,27,-101
29551681,2163,2572,-2253,12,50,-155
29554891,2055,2541,-2211,-15,15,-118
29558187,2118,2756,-2103,-28,-55,-79
29561547,2377,3053,-2438,4,-87,-16
29564607,2481,3087,-2579,87,50,13
29567643,2169,2757,-2337,37,9,19
29570593,2081,2560,-2312,-42,-20,7
29573716,2193,2561,-2364,-34,25,-67
29576925,2125,2520,-2210,-13,71,-105
29580222,2098,2579,-2096,-29,20,-113
29583518,2212,2853,-2245,-7,0,-49
29586598,2308,3029,-2398,20,17,5
29589504,2288,2967,-2416,35,19,52
29592540,2178,2748,-2408,3,4,60
29595403,2082,2500,-2236,-15,7,22
29598439,2143,2480,-2219,-32,-5,-16
29601649,2212,2606,-2278,-21,30,-35
29604859,2206,2715,-2268,-27,29,-41
29608069,2286,2952,-2378,-22,16,7
29611108,2325,2995,-2500,-12,22,56
29614252,2212,2792,-2327,8,56,81
29617177,2123,2543,-2217,-25,11,76
29620300,1853,1821,-1662,-33,-16,-58
29623597,2423,3138,-2710,19,-17,21
29626720,2336,2793,-2552,42,137,23
29629843,2098,2886,-2099,-14,48,47
29632966,2196,2604,-2318,-141,-106,132
29636439,2415,2870,-2343,30,139,11
29639583,2099,2688,-2286,-1,42,83
29642595,2045,2364,-2095,-57,30,64
29645718,2128,2556,-2105,-36,-25,32
29648928,2316,2818,-2413,-27,-18,36
29652138,2384,2834,-2390,34,50,41
29655174,2217,2777,-2322,-14,17,72
29658297,2339,2805,-2409,-52,-13,95
29661555,2341,2702,-2387,-24,78,47
29664630,2110,2457,-2166,-22,63,23
29667753,2129,2420,-2089,-47,21,-19
29670962,2262,2647,-2280,-12,7,-33
29674085,2320,2799,-2354,17,28,-14
29677208,2303,2894,-2355,5,-10,19
29680245,2305,2778,-2338,-6,13,42
29683281,2260,2638,-2302,-14,13,27
29686407,2259,2598,-2312,-19,21,1
29689482,2209,2467,-2209,-19,25,-47
29692650,2172,2554,-2198,-18,16,-84
29695860,2252,2786,-2365,-20,-16,-69
29699156,2287,2864,-2353,17,20,-50
29702279,2246,2766,-2292,2,-2,-26
29705315,2260,2715,-2313,-9,-17,-24
29708525,2285,2672,-2353,1,15,-51
29711586,2166,2582,-2245,7,27,-75
29714598,2151,2556,-2218,-19,-12,-94
29717894,2138,2486,-2173,-13,-4,-124
29721191,2151,2608,-2026,-11,-32,-191
29724574,2251,2829,-2328,24,-56,-114
29727870,2441,3302,-2679,88,97,-48
29730993,2191,2996,-2545,23,15,55
29734030,2062,2314,-2140,-72,9,9
29737004,2137,2481,-2168,-54,-10,-64
29740276,2118,2367,-2196,-26,46,-127
29743572,2111,2631,-2148,8,26,-125
29746695,2090,2745,-2174,-20,-53,-54
29749992,2335,2985,-2389,5,-54,-10
29753115,2360,3047,-2468,57,-4,24
29756151,2230,2776,-2401,45,16,46
29759187,2119,2617,-2345,9,16,40
29762185,2161,2569,-2337,-35,3,-11
29765260,2155,2526,-2278,-30,48,-48
29768469,2128,2574,-2157,-24,50,-76
29771679,2184,2801,-2247,-13,8,-35
29774802,2300,2933,-2358,4,18,17
29777752,2261,2962,-2427,30,16,60
29780788,2188,2743,-2370,11,16,81
29783824,2166,2591,-2298,-4,5,69
29786797,2148,2477,-2260,-28,13,37
29789932,2147,2526,-2201,-26,18,-6
29793020,2235,2678,-2314,-31,25,-19
29796229,2278,2849,-2360,-17,29,15
29799352,2300,2934,-2457,-16,36,60
29802475,2275,2767,-2397,-10,25,91
29805598,2190,2575,-2253,-17,44,76
29808721,2173,2536,-2237,-20,13,43
29811869,2222,2556,-2274,-22,26,12
29814967,1997,2089,-1867,-30,3,-77
29818090,2437,3195,-2524,-5,-31,24
29821213,2482,3013,-2704,21,92,66
29824250,2180,2853,-2197,9,97,66
29827199,2130,2558,-2232,-119,-92,132
29830582,2312,2397,-2222,-37,99,-2
29833705,2124,2588,-2170,10,44,-15
29836853,2117,2443,-2178,-43,13,-17
29840038,2245,2806,-2257,-21,-8,-25
29843248,2352,3003,-2489,-7,-22,26
29846371,2414,2976,-2484,10,17,45
29849407,2294,2762,-2359,11,44,57
29852443,2184,2589,-2231,-55,0,43
29855480,2251,2499,-2249,-46,19,-9
29858603,2200,2507,-2220,-26,57,-61
29861861,2122,2509,-2109,-26,6,-87
29864935,2285,2858,-2329,-17,-8,-64
29868145,2360,2995,-2430,15,6,-27
29871181,2286,2905,-2374,14,16,7
29874131,2260,2754,-2337,-7,-12,23
29877254,2190,2506,-2209,-26,21,-11
29880464,2144,2477,-2174,-18,10,-59
29883673,2157,2549,-2223,-18,17,-100
29886993,2229,2734,-2278,-3,-1,-105
29890215,2283,2909,-2377,-3,-6,-65
29893303,2321,2954,-2388,4,-14,-27
29896426,2264,2788,-2318,10,17,-7
29899462,2161,2603,-2207,-10,-8,-29
29902672,2191,2537,-2221,-2,13,-64
29905795,2161,2567,-2243,6,11,-103
29908918,2132,2686,-2258,3,5,-104
29911978,2057,2482,-2119,-11,-17,-106
29915337,2222,2741,-2113,15,-63,-132
29918634,2604,3489,-2922,52,-54,-40
29921843,2481,3304,-2761,98,129,39
29924966,1942,2604,-2169,6,68,78
29927916,2005,2188,-2055,-121,-69,43
29931212,2266,2410,-2218,-10,66,-105
29934509,2145,2666,-2249,24,64,-102
29937743,2061,2708,-2128,-11,10,-47
29940928,2182,2902,-2261,-30,-83,19
29944138,2396,3010,-2518,46,0,77
29947088,2396,2917,-2451,63,39,85
29950124,2183,2624,-2308,6,16,76
29953073,2123,2457,-2261,-46,-7,27
29956196,2233,2579,-2336,-29,54,-23
29959406,2174,2580,-2266,-19,67,-47
29962665,2155,2698,-2188,-27,49,-32
29965826,2274,2881,-2317,-22,-5,14
29968949,2358,2933,-2409,20,38,77
29971985,2250,2813,-2401,12,28,93
29975021,2149,2600,-2226,-15,10,89
29978144,2163,2489,-2296,-37,2,54
29981180,2229,2553,-2268,-24,29,21
29984303,2234,2625,-2256,-24,18,2
29987363,2273,2817,-2297,-25,25,7
29990411,2334,2962,-2476,-22,13,34
29993499,2326,2903,-2448,-17,39,75
29996622,2239,2643,-2297,-26,33,76
29999745,2193,2450,-2141,-40,10,26
30002868,2209,2505,-2180,-30,13,-24
30006078,2232,2650,-2297,-7,28,-50
30009201,2233,2758,-2316,-20,10,-44
30012435,2209,2700,-2308,-26,0,-28
30015533,2257,2697,-2191,-37,-12,-75
30018830,2486,3223,-2684,9,-3,27
30021779,2324,2706,-2522,18,135,-17
30024989,1936,2520,-2087,-50,-28,-15
30028286,2154,2297,-2185,-116,-67,-53
30031669,2305,2625,-2292,40,60,-152
30034879,2143,2767,-2267,4,-3,-88
30037939,2242,2869,-2300,-12,-39,-59
30041211,2259,2901,-2431,11,-16,-31
30044421,2264,2831,-2414,11,-16,-18
30047631,2183,2610,-2282,23,28,-62
30050754,2098,2523,-2179,-16,-12,-96
30054050,2195,2640,-2318,-15,-9,-113
30057347,2250,2768,-2313,19,38,-114
30060557,2167,2756,-2255,13,-4,-94
30063782,2252,2872,-2395,2,-22,-56
30066803,2263,2825,-2427,30,6,-36
30069839,2144,2643,-2260,26,17,-45
30072962,2115,2597,-2237,1,-19,-45
30076085,2147,2577,-2232,-7,2,-69
30079121,2175,2669,-2242,10,13,-75
30082244,2222,2782,-2333,0,10,-56
30085280,2214,2810,-2298,7,8,-34
30088253,2210,2833,-2321,3,19,-4
30091218,2214,2810,-2374,0,8,20
30094042,2151,2689,-2364,1,27,22
30096992,2103,2548,-2215,-4,22,13
30100028,1969,2219,-2002,-33,13,-28
30103238,2166,2623,-2103,8,-42,-80
30106361,2529,3314,-2750,36,-4,-10
30109484,2461,3363,-2720,66,107,82
30112631,2126,2906,-2409,-15,66,172
30115816,2101,2423,-2214,-104,-11,155
30119200,2192,2391,-2251,-46,79,40
30122323,2120,2399,-2151,-27,86,-3
30125446,2034,2518,-2063,-43,42,8
30128482,2186,2738,-2227,-53,-47,42
30131692,2376,3075,-2500,-5,-13,89
30134815,2442,3029,-2557,38,28,130
30137962,2287,2810,-2384,-13,27,152
30141147,2231,2561,-2331,-57,13,111
30144357,2232,2479,-2297,-52,82,45
30147480,2133,2391,-2161,-57,73,-15
30150690,2167,2557,-2149,-51,55,-34
30153900,2256,2840,-2318,-23,21,-2
30157023,2349,3013,-2441,12,25,49
30160059,2325,2889,-2438,8,15,94
30163057,2251,2655,-2324,-7,12,94
30166045,2184,2463,-2198,-34,9,54
30169081,2217,2389,-2231,-32,15,-1
30172204,2171,2476,-2221,-30,21,-58
30175414,2233,2740,-2306,-17,16,-79
30178623,2352,2969,-2416,-9,15,-33
30181746,2379,2987,-2505,-1,13,9
30184696,2287,2801,-2349,-9,21,19
30187755,2176,2516,-2190,-20,1,-5
30190772,2214,2461,-2217,-14,25,-60
30194013,2139,2504,-2182,0,12,-102
30197101,2110,2488,-2145,-14,7,-128
30200311,2202,2691,-2130,-12,-42,-169
30203694,2534,3366,-2831,37,-9,-33
30206817,2295,2820,-2428,49,115,-28
30210027,2044,2701,-2200,-40,-29,19
30213261,2215,2227,-2195,-97,-37,-32
30216533,2200,2500,-2118,25,57,-139
30219743,2053,2567,-2198,-22,-8,-113
30223039,2185,2762,-2208,2,-5,-109
30226162,2287,3022,-2389,14,-53,-46
30229372,2372,3061,-2562,33,2,19
30232322,2296,2851,-2397,27,36,24
30235358,2102,2531,-2191,-24,5,15
30238419,2166,2495,-2193,-41,12,-33
30241604,2142,2544,-2255,-3,53,-76
30244727,2129,2609,-2177,-8,30,-85
30247850,2199,2851,-2289,-5,-7,-46
30250973,2322,3033,-2445,7,-8,7
30253836,2300,2933,-2407,32,30,58
30256872,2214,2737,-2304,2,7,77
30259735,2157,2522,-2260,-16,19,64
30262906,2116,2413,-2184,-24,24,11
30265981,2174,2566,-2230,-21,14,-24
30269190,2219,2699,-2320,-14,28,-26
30272400,2262,2917,-2333,-7,7,7
30275263,2342,2953,-2440,-13,6,56
30278299,2309,2808,-2411,-2,27,82
30281335,2193,2576,-2220,-21,38,71
30284458,2157,2461,-2226,-30,14,36
30287605,2161,2528,-2226,-27,33,-14
30290791,1843,1884,-1830,-31,35,-80
30294040,2201,2737,-2015,0,-112,-118
30297297,2875,3944,-3409,68,-12,70
30300420,2382,3038,-2512,105,278,87
30303630,1791,2705,-2156,-117,-95,192
30307013,2333,2157,-2174,-57,131,-29
30310310,2112,2488,-2126,9,55,-68
30313371,1975,2245,-2099,-58,46,-65
30316556,2083,2598,-2045,-36,-18,-97
30319852,2279,3046,-2416,-3,-100,6
30322975,2513,3196,-2614,67,-8,52
30326012,2299,2898,-2466,73,37,85
30329048,2178,2609,-2277,-39,-23,86
30332258,2218,2381,-2271,-50,30,-6
30335381,2186,2422,-2251,-25,83,-94
30338615,2025,2297,-2019,-24,38,-160
30341887,2250,2875,-2275,-18,-10,-129
30345270,2420,3175,-2564,35,-7,-37
30348393,2335,3056,-2437,65,28,31
30351429,2251,2840,-2370,15,-28,82
30354552,2182,2468,-2325,-5,21,39
30357589,2121,2355,-2223,-13,3,-38
30360712,2138,2425,-2214,-18,19,-94
30363970,2152,2609,-2225,-13,11,-125
30367218,2285,2978,-2396,-4,-8,-85
30370341,2442,3166,-2554,11,4,17
30373290,2347,2941,-2421,14,39,51
30376327,2184,2598,-2212,-28,3,41
30379363,1921,1917,-1869,-42,16,-81
30382573,2327,2863,-2449,6,-21,-100
30385782,2310,2860,-2612,23,54,-76
30388929,2155,2854,-2251,6,77,-78
30391942,2156,2890,-2258,-84,-81,28
30395186,2423,2762,-2409,-27,69,-12
30398361,2254,2850,-2326,27,89,24
30401397,1995,2422,-2147,-54,33,36
30404520,2049,2377,-2038,-58,1,0
30407470,2167,2650,-2236,-46,-18,-29
30410766,2309,2846,-2419,1,20,-25
30413827,2260,2885,-2343,15,31,12
30416839,2286,2961,-2351,-25,-20,74
30420049,2365,2880,-2440,-34,53,97
30423172,2263,2661,-2303,-22,78,68
30426295,2048,2376,-2089,-47,51,30
30429418,2129,2494,-2166,-41,15,-12
30432627,2194,2712,-2272,-10,34,-24
30435837,2246,2892,-2340,6,2,-2
30438724,2336,2984,-2420,1,9,54
30441563,2303,2839,-2367,-5,14,81
30444599,2284,2765,-2334,-22,28,83
30447722,2228,2535,-2231,-22,28,59
30450845,2114,2400,-2119,-19,46,-21
30454055,2147,2637,-2217,-30,-11,-46
30457351,2277,2800,-2339,-6,14,-42
30460474,2267,2873,-2331,10,8,-16
30463559,2258,2836,-2320,-3,-1,19
30466547,2343,2806,-2381,-6,-5,27
30469583,2258,2658,-2289,11,50,11
30472619,2124,2531,-2230,-14,9,-34
30475742,2171,2521,-2197,-13,7,-67
30478865,2190,2669,-2283,-4,0,-91
30481901,2260,2813,-2342,6,-6,-76
30484938,2344,2919,-2379,10,-11,-44
30488175,2161,2602,-2245,12,22,-24
30491270,1912,2005,-1560,-32,-48,-183
30494654,2655,3636,-2945,63,-81,2
30497725,2320,2703,-2576,121,284,-26
30500986,1744,2695,-2005,-10,-19,20
30504196,2242,2210,-2290,-200,-153,33
30507579,2434,2678,-2227,80,107,-137
30510876,2041,2623,-2332,-9,8,-30
30513937,2106,2462,-2014,-36,1,-49
30517035,2138,2730,-2192,-12,-51,-26
30520332,2342,2956,-2564,40,-32,-2
30523455,2360,2882,-2468,91,40,-10
30526578,2111,2633,-2258,-10,-36,9
30529701,2310,2674,-2376,-57,-22,-5
30532910,2361,2710,-2437,-16,69,-56
30536124,2098,2472,-2131,-14,101,-74
30539441,2139,2631,-2201,-47,0,-74
30542540,2306,2918,-2445,-1,15,-44
30545663,2198,2853,-2358,35,33,-21
30548786,2195,2831,-2326,14,-21,30
30551909,2215,2687,-2343,-24,-21,46
30555118,2227,2612,-2297,-17,19,19
30558241,2072,2299,-2105,-54,28,-40
30561512,2338,2954,-2435,-21,-17,-55
30564748,2416,3136,-2720,-4,23,2
30567697,2242,2881,-2405,19,111,5
30570733,2051,2807,-2288,-51,-33,88
30573943,2246,2419,-2208,-52,36,20
30577066,2306,2659,-2211,14,73,-11
30580189,2145,2576,-2277,-24,36,11
30583312,2135,2574,-2137,-25,44,-13
30586545,2193,2798,-2295,-33,-32,14
30589732,2358,2957,-2508,-15,18,37
30592855,2296,2860,-2393,15,43,48
30595891,2181,2768,-2245,-41,-8,82
30599049,2257,2582,-2264,-50,20,56
30602137,2210,2538,-2201,-21,74,14
30605260,2137,2524,-2182,-38,24,-4
30608383,2181,2639,-2251,-23,26,-12
30611617,2279,2878,-2360,1,8,-4
30614455,2289,2924,-2378,4,12,39
30617405,2315,2887,-2413,-3,1,61
30620354,2224,2668,-2253,-14,41,67
30623477,2210,2521,-2182,-33,14,37
30626600,2209,2585,-2253,-17,35,-5
30629723,2189,2553,-2246,-4,45,-38
30632846,2174,2784,-2327,-8,-3,-29
30635973,2315,2891,-2403,-8,-10,1
30639030,2318,2849,-2392,18,23,21
30642042,2232,2714,-2232,-9,-1,34
30645078,2272,2625,-2264,-14,2,24
30648114,2244,2558,-2225,-3,32,-24
30651237,2164,2551,-2218,-1,26,-50
30654360,2204,2686,-2306,-19,-9,-61
30657570,2303,2764,-2324,3,1,-66
30660520,2252,2810,-2326,-1,0,-42
30663604,2291,2822,-2349,1,-13,-19
30666679,2277,2667,-2321,1,29,-20
30669715,2016,2250,-2077,-13,18,-56
30672925,1906,2025,-1658,-39,-52,-215
30676308,2641,3648,-3016,71,-59,-53
30679518,2351,2913,-2643,115,242,-41
30682814,1886,2888,-2159,-31,-56,52
30686028,2324,2326,-2363,-166,-96,53
30689344,2375,2598,-2183,55,97,-107
30692530,2016,2399,-2202,-28,18,-48
30695740,2000,2324,-1914,-38,10,-103
30699075,2130,2784,-2207,-10,-66,-79
30702333,2427,3079,-2607,44,-33,-25
30705543,2314,2947,-2474,93,29,8
30708492,2163,2757,-2371,-12,-42,49
30711727,2304,2614,-2401,-48,-6,31
30714825,2271,2567,-2314,-11,97,-50
30718035,2001,2300,-2036,-36,47,-110
30721331,2097,2624,-2201,-46,4,-117
30724541,2299,2985,-2451,16,3,-71
30727577,2247,3049,-2392,43,23,-10
30730700,2246,2968,-2437,26,-30,60
30733823,2250,2686,-2386,-9,1,76
30736797,2193,2517,-2236,-19,18,40
30739896,2166,2484,-2228,-34,34,-16
30743106,2114,2472,-2193,-31,37,-69
30746315,2166,2784,-2303,-31,12,-65
30749525,2255,2849,-2422,-21,-11,-19
30752822,2287,2889,-2188,24,-20,7
30755858,2423,3296,-2646,2,-22,118
30758981,2214,2527,-2198,22,169,54
30762152,1939,2517,-2123,-44,-9,59
30765227,2144,2174,-2145,-112,-12,2
30768437,2279,2756,-2293,14,91,-101
30771646,2161,2864,-2340,-30,21,2
30774683,2198,2757,-2244,-32,-7,36
30777806,2317,2973,-2355,-14,-16,91
30781015,2338,2816,-2417,-7,26,106
30784138,2239,2595,-2253,14,69,77
30787198,2060,2453,-2173,-40,10,54
30790298,2205,2503,-2273,-49,16,14
30793421,2239,2668,-2286,-20,35,-26
30796630,2262,2767,-2329,-13,23,10
30799788,2321,2871,-2322,-18,17,36
30802876,2321,2843,-2378,-11,27,75
30805999,2259,2696,-2311,-10,27,78
30809122,2197,2603,-2248,0,46,50
30812096,2130,2453,-2217,-19,21,16
30815195,2174,2557,-2218,-24,11,-22
30818405,2280,2729,-2310,-13,10,-18
30821614,2301,2820,-2295,0,26,-5
30824564,2315,2868,-2347,-17,-1,25
30827687,2338,2791,-2438,-9,16,45
30830723,2197,2612,-2271,-9,47,24
30833759,2124,2481,-2148,-19,5,-6
30836820,2199,2551,-2234,-28,-2,-44
30840005,2241,2644,-2276,8,12,-70
30843042,2239,2784,-2293,-3,0,-58
30846078,2306,2841,-2368,-2,-13,-31
30849288,2319,2823,-2416,-8,31,-20
30852411,1761,1722,-1494,-45,-8,-147
30855707,2467,3282,-2624,12,-112,-128
30859090,2744,3506,-3257,108,165,-8
30862348,1933,2753,-1925,49,119,-13
30865510,2044,2382,-2126,-201,-210,79
30868893,2452,2509,-2253,-17,114,-128
30872276,2124,2735,-2350,22,27,-73
30875399,2008,2398,-2028,-39,24,-62
30878609,2087,2626,-2079,-36,-63,-69
30881906,2264,2925,-2436,19,-65,-34
30885115,2370,2950,-2456,96,36,-38
30888262,2126,2747,-2291,41,-11,-9
30891361,2227,2706,-2349,-54,-48,2
30894484,2366,2748,-2461,-17,41,-58
30897694,2152,2502,-2215,-6,109,-89
30900939,2013,2406,-2040,-37,2,-116
30904114,2224,2810,-2330,-10,4,-92
30907237,2266,2961,-2381,45,17,-54
30910360,2194,2923,-2356,42,-2,0
30913334,2201,2802,-2388,9,-40,44
30916345,2207,2603,-2287,-4,13,31
30919382,2188,2582,-2298,-13,3,10
30922418,2160,2529,-2241,-19,35,-23
30925628,2110,2541,-2164,-20,15,-65
30928837,2234,2910,-2430,-19,-7,-26
30932047,2328,2969,-2473,2,19,17
30934997,2212,2753,-2254,11,41,47
30938057,2157,2593,-2190,-27,-16,50
30941243,2278,2631,-2317,-10,31,23
30944366,2196,2588,-2274,10,54,-10
30947489,2052,2498,-2214,-33,14,-39
30950698,2388,3089,-2408,-42,-56,-71
30953995,2525,3287,-2796,13,8,34
30956944,2271,2760,-2400,36,163,37
30960067,2065,2812,-2248,-42,-19,102
30963413,2249,2343,-2256,-76,57,33
30966487,2261,2591,-2197,23,78,-16
30969610,2071,2581,-2269,-39,22,23
30972733,2113,2546,-2144,-31,25,-3
30975856,2229,2892,-2324,-29,-35,27
30979066,2417,3051,-2552,-10,-9,80
30982189,2342,2877,-2413,23,75,82
30985225,2123,2571,-2196,-53,-5,96
30988371,2218,2562,-2284,-59,27,58
30991471,2227,2564,-2268,-11,78,-4
30994594,2107,2480,-2154,-20,49,-23
30997804,2214,2736,-2247,-34,-13,-23
31001135,2362,2919,-2415,5,24,21
31004050,2327,2906,-2392,10,19,44
31007086,2269,2836,-2357,-5,16,74
31010122,2238,2599,-2317,-25,24,37
31013270,2146,2497,-2192,-26,27,-7
31016368,2218,2589,-2268,-32,1,-35
31019491,2171,2596,-2242,-8,37,-68
31022614,2212,2774,-2268,-16,-12,-57
31025911,2357,2942,-2462,-16,-12,-12
31029207,2316,2795,-2363,8,36,3
31032070,2208,2634,-2206,-8,12,4
31035019,2195,2553,-2224,-29,-4,-29
31038254,2215,2565,-2260,3,34,-72
31041265,2153,2598,-2225,-4,9,-93
31044302,2199,2710,-2269,-10,-15,-85
31047598,1947,2053,-1705,-32,-24,-180
31050981,2457,3335,-2521,54,-130,-74
31054278,2708,3489,-3174,109,129,51
31057488,1997,2693,-2011,72,173,48
31060611,1872,2237,-2015,-191,-159,106
31064183,2305,2425,-2202,14,104,-160
31067377,2084,2650,-2265,33,47,-120
31070587,2029,2468,-1998,-27,15,-102
31073883,2264,2968,-2297,-21,-107,-27
31077267,2438,3048,-2526,26,-48,19
31080390,2398,2937,-2462,96,33,29
31083426,2153,2726,-2374,29,-5,49
31086485,2171,2485,-2341,-41,-10,8
31089585,2221,2538,-2291,-34,57,-90
31092795,2125,2456,-2142,-27,57,-119
31096091,2107,2609,-2094,-24,41,-123
31099388,2276,2979,-2351,-8,-15,-56
31102637,2344,3066,-2498,49,38,31
31105634,2229,2869,-2376,35,3,68
31108583,2123,2646,-2321,-6,-5,66
31111644,2159,2470,-2262,-19,0,18
31114656,2165,2513,-2249,-19,23,-17
31117866,2185,2568,-2193,-22,20,-43
31121075,2207,2767,-2295,-26,25,-38
31124285,2349,3034,-2440,-8,8,35
31127235,2384,2985,-2500,2,45,65
31130184,2205,2695,-2335,-2,30,89
31133220,2128,2475,-2162,-33,15,42
31136347,2174,2461,-2241,-15,20,-13
31139578,2185,2592,-2305,-2,48,-44
31142676,2202,2696,-2296,-20,8,-31
31145799,2250,2775,-2387,-36,12,-5
31148922,2214,2597,-2164,-37,8,-30
31152045,2473,3217,-2669,-3,5,45
31154995,2352,2796,-2508,9,77,63
31157944,2069,2519,-2063,-17,86,29
31161070,2024,2352,-2090,-118,-77,12
31164412,2336,2616,-2275,-7,76,-84
31167487,2171,2783,-2281,13,38,-52
31170610,2200,2813,-2337,-29,2,10
31173646,2296,2909,-2398,-24,-12,39
31176856,2312,2856,-2425,-12,21,61
31179979,2228,2682,-2299,-8,37,41
31183015,2138,2495,-2217,-14,35,3
31186055,2131,2549,-2191,-39,-4,-21
31189284,2269,2705,-2315,-18,19,-40
31192471,2245,2793,-2355,-5,32,-35
31195594,2216,2796,-2285,-4,12,-6
31198630,2312,2855,-2335,-13,-5,18
31201753,2293,2793,-2351,3,28,30
31204737,2180,2602,-2248,-3,20,3
31207652,2150,2551,-2231,-16,8,-15
31210775,2164,2555,-2206,-17,11,-62
31214009,2234,2765,-2321,-2,2,-59
31217021,2276,2810,-2319,-6,7,-47
31220057,2308,2844,-2342,3,11,-27
31223093,2305,2817,-2359,-7,11,-6
31226130,2236,2688,-2290,-4,20,-1
31229166,2142,2551,-2250,-6,23,-22
31232289,2038,2315,-2079,-18,8,-58
31235412,1738,1620,-1283,-48,-49,-254
31238820,2886,4159,-3430,87,-100,-16
31242092,2531,3116,-2827,139,292,40
31245301,1780,2853,-2013,-2,5,112
31248338,2237,2176,-2302,-228,-144,143
31251808,2290,2672,-2208,75,135,-101
31255104,1936,2356,-2211,-28,20,-27
31258314,2010,2274,-1828,-58,17,-82
31261572,2115,2817,-2139,-21,-106,-27
31264907,2551,3212,-2644,55,-39,30
31268030,2404,3083,-2483,119,45,64
31271153,2137,2748,-2375,-8,-35,109
31274363,2290,2563,-2406,-53,39,33
31277486,2251,2471,-2346,-28,112,-62
31280782,1978,2199,-1974,-46,67,-119
31284079,2132,2624,-2146,-48,4,-135
31287312,2365,3097,-2435,28,13,-43
31290411,2343,3113,-2438,55,14,38
31293448,2267,2931,-2487,23,-28,109
31296657,2242,2540,-2349,-12,10,91
31299780,2170,2426,-2284,-20,17,39
31302903,2137,2354,-2242,-38,28,-19
31306148,2101,2407,-2167,-34,26,-93
31309323,2258,2928,-2357,-30,-7,-67
31312557,2445,3159,-2586,6,-2,8
31315395,2368,2974,-2429,22,54,70
31318432,2172,2636,-2221,-15,-4,85
31321555,2224,2511,-2262,-37,3,48
31324591,2203,2473,-2269,4,54,-27
31327627,2076,2464,-2149,-6,47,-74
31330750,2152,2675,-2276,-37,-20,-75
31334047,2301,2900,-2430,-15,24,-50
31337281,2046,2379,-2069,-23,20,-42
31340466,2481,3338,-2514,-13,-52,-28
31343763,2512,3142,-2782,10,-1,74
31346799,2087,2374,-2179,24,197,-3
31349922,1865,2488,-2046,-129,-132,22
31353305,2272,2256,-2211,-58,46,-115
31356602,2259,2939,-2334,48,53,-139
31359811,2226,2968,-2449,-32,-12,-2
31363069,2294,2901,-2313,-14,20,20
31366144,2209,2752,-2283,-20,-20,51
31369354,2310,2683,-2354,-13,13,35
31372477,2214,2544,-2266,35,76,-20
31375600,1996,2448,-2087,-27,5,-44
31378723,2204,2660,-2285,-37,-25,-57
31382019,2305,2874,-2347,11,66,-53
31385142,2170,2761,-2211,2,21,-12
31388202,2278,2868,-2338,-20,-11,32
31391388,2304,2795,-2437,8,26,35
31394338,2125,2559,-2206,11,55,10
31397374,2145,2578,-2241,-14,-20,-2
31400584,2166,2541,-2247,-1,31,-43
31403707,2239,2752,-2255,-5,-6,-43
31406865,2332,2885,-2371,-7,-3,-4
31409866,2316,2824,-2346,6,35,3
31412753,2222,2799,-2340,1,28,27
31415678,2273,2719,-2336,-19,-1,36
31418801,2187,2561,-2284,-1,47,10
31421838,2123,2477,-2158,-14,12,-24
31425047,2191,2656,-2235,-19,-5,-35
31428257,2332,2845,-2396,4,11,-38
31431293,2261,2847,-2367,7,21,6
31434156,2269,2824,-2343,-13,-9,27
31437304,2292,2774,-2375,-11,32,32
31440402,2109,2412,-2172,-26,41,-40
31443612,2112,2555,-1953,-20,-76,-148
31446995,2725,3690,-3187,45,-75,2
31450031,2452,2915,-2625,101,243,26
31453241,1922,2846,-2051,-118,-124,147
31456711,2423,2322,-2351,-109,6,55
31459834,2299,2761,-2220,58,138,-61
31463092,2012,2484,-2278,-52,9,7
31465993,2061,2344,-2033,-59,18,-29
31469203,2146,2705,-2199,-24,-76,-18
31472500,2450,3030,-2530,19,-32,18
31475623,2406,2940,-2476,81,42,31
31478659,2171,2740,-2353,-6,5,62
31481608,2282,2663,-2410,-65,-26,50
31484818,2356,2632,-2473,-27,91,-22
31488051,2047,2318,-2099,-37,61,-89
31491238,2072,2540,-2105,-55,-10,-100
31494621,2350,2916,-2377,-8,-5,-81
31497744,2337,2992,-2355,46,41,-34
31500867,2267,2943,-2405,5,-33,50
31503903,2274,2755,-2418,-10,9,50
31506974,2193,2530,-2314,-19,19,4
31509976,2158,2481,-2265,-30,11,-34
31513210,2145,2446,-2203,-29,29,-90
31516395,2180,2705,-2234,-20,4,-99
31519518,2293,2999,-2463,-24,-25,-53
31522815,2350,2972,-2422,18,33,4
31525764,2178,2767,-2255,-10,6,23
31528800,2210,2629,-2239,-22,-13,6
31531923,2205,2564,-2272,6,39,-42
31534960,2081,2529,-2189,1,33,-68
31538020,2149,2633,-2258,-33,-14,-77
31541292,2201,2703,-2258,-22,0,-71
31544415,2171,2650,-2025,-19,5,-112
31547625,2485,3392,-2724,21,-26,49
31550748,2255,2639,-2386,38,156,29
31553871,1936,2580,-2090,-32,-18,41
31557081,2158,2263,-2199,-115,-57,13
31560377,2259,2602,-2239,27,86,-106
31563648,2119,2707,-2230,-10,3,-42
31566710,2261,2834,-2264,-21,-19,-13
31570007,2306,2976,-2416,-2,3,31
31572956,2292,2889,-2417,5,5,66
31575819,2245,2732,-2374,17,41,56
31578855,2093,2508,-2202,-7,34,32
31581891,2135,2510,-2179,-41,11,-2
31585014,2216,2621,-2309,-21,8,-35
31588161,2241,2719,-2254,-2,52,-37
31591260,2211,2769,-2241,-10,1,-2
31594297,2294,2928,-2401,-4,8,48
31597246,2349,2906,-2433,12,37,61
31600282,2191,2668,-2231,5,32,50
31603232,2129,2556,-2236,-29,-7,34
31606355,2171,2518,-2236,-15,31,-7
31609513,2185,2640,-2244,-13,10,-21
31612712,2263,2761,-2286,-7,14,-14
31615811,2286,2841,-2369,-5,11,3
31618760,2307,2891,-2414,-1,29,39
31621796,2244,2769,-2360,-4,14,55
31624833,2214,2591,-2302,-8,34,46
31627869,2141,2477,-2202,-19,16,4
31630905,2176,2552,-2237,-17,17,-33
31634115,2241,2688,-2344,-4,17,-42
31637262,2225,2814,-2334,-1,15,-26
31640361,2264,2801,-2337,-20,3,3
31643310,1889,1890,-1660,-40,13,-89
31646520,2438,3214,-2443,9,-90,-98
31649643,2716,3555,-3255,66,14,52
31652679,2184,2672,-2370,76,245,9
31655716,1767,2590,-2036,-110,-99,89
31659012,2396,2333,-2225,-64,85,-96
31662270,2233,2835,-2284,54,77,-108
31665432,2057,2517,-2215,-37,16,-34
31668641,2130,2649,-2031,-33,-19,-38
31671938,2298,2939,-2422,-17,-65,11
31675148,2389,2866,-2427,48,8,6
31678010,2194,2747,-2327,52,41,-2
31681047,2161,2603,-2239,-36,-41,9
31684170,2299,2615,-2386,-48,26,-39
31687403,2257,2669,-2336,-11,69,-72
31690589,2080,2481,-2096,-30,47,-90
31693799,2202,2768,-2262,-28,-13,-71
31697095,2320,2924,-2392,17,19,-29
31700218,2219,2844,-2278,41,18,1
31703168,2191,2761,-2336,14,-10,29
31706291,2196,2592,-2282,-14,-14,21
31709539,2220,2637,-2284,-8,12,-7
31712561,2208,2622,-2289,-20,20,-27
31715747,2163,2630,-2204,-14,23,-46
31718956,2269,2854,-2346,-18,0,-28
31722079,2313,2907,-2417,1,12,6
31724942,2213,2748,-2285,9,43,27
31727892,2133,2589,-2169,-15,-7,26
31731015,2231,2601,-2216,-20,4,0
31733964,2241,2633,-2313,13,36,-31
31737112,2168,2658,-2297,3,32,-36
31740123,2199,2713,-2335,-17,0,-21
31743246,2276,2783,-2378,-18,23,-9
31746369,2275,2798,-2309,-9,19,4
31749319,2229,2767,-2321,-13,27,14
31752442,2124,2527,-2216,-18,19,8
31755478,1986,2196,-1813,-40,5,-82
31758601,2406,3193,-2639,-2,-58,-5
31761772,2408,2926,-2687,39,98,5
31764674,2066,2777,-2078,24,72,-1
31767710,2088,2656,-2274,-124,-119,85
31771093,2406,2566,-2326,15,106,-40
31774303,2107,2674,-2233,8,47,4
31777166,2091,2527,-2168,-47,4,13
31780202,2210,2671,-2184,-15,15,-13
31783412,2249,2816,-2367,-5,-24,2
31786471,2316,2858,-2406,18,18,16
31789484,2269,2772,-2418,24,30,21
31792520,2198,2707,-2294,-31,-4,37
31795643,2280,2682,-2333,-41,-2,18
31798766,2223,2604,-2336,-13,73,-12
31801976,2098,2467,-2131,-33,15,-44
31805186,2224,2736,-2313,-26,-2,-44
31808396,2313,2862,-2400,8,12,-32
31811475,2221,2819,-2336,20,26,-12
31814555,2228,2794,-2331,-7,-28,18
31817678,2260,2652,-2374,-15,22,6
31820714,2220,2598,-2252,-16,15,-17
31823924,2179,2592,-2232,-17,19,-41
31827134,2181,2620,-2233,-15,23,-65
31830343,2198,2759,-2305,-6,6,-51
31833380,2293,2830,-2382,-6,-5,-26
31836527,2267,2800,-2323,14,21,-7
31839539,2196,2682,-2237,-5,1,1
31842402,1910,1970,-1805,-29,4,-68
31845525,2164,2550,-2203,2,-42,-110
31848734,2525,3234,-2782,61,25,-41
31851857,2394,3237,-2674,64,114,22
31854980,2043,2681,-2145,-52,1,78
31858017,2188,2487,-2153,-108,-36,47
31861317,2288,2509,-2287,-20,65,-27
31864571,2155,2541,-2224,1,90,-38
31867559,1977,2445,-2022,-44,-28,-23
31870856,2233,2787,-2311,-32,-59,-12
31874152,2382,2997,-2491,27,-20,5
31877188,2331,2938,-2476,56,35,41
31880225,2241,2856,-2419,9,-11,75
31883261,2286,2708,-2376,-49,6,65
31886301,2270,2583,-2332,-44,71,1
31889358,2134,2426,-2139,-42,82,-42
31892543,2100,2516,-2087,-44,25,-61
31895753,2264,2834,-2299,-11,16,-39
31898963,2323,2989,-2384,21,3,8
31901825,2285,2949,-2411,28,14,65
31904862,2249,2743,-2357,1,-12,88
31907898,2212,2592,-2287,-19,13,74
31911024,2202,2477,-2259,-27,22,27
31914185,2157,2428,-2198,-25,34,-37
31917354,2185,2682,-2264,-33,8,-59
31920477,2334,2927,-2417,-8,8,-28
31923513,2313,2931,-2453,4,16,12
31926462,2255,2769,-2367,2,14,40
31929412,2226,2637,-2258,-14,-3,31
31932535,2208,2537,-2249,-3,23,-5
31935571,2180,2529,-2237,0,21,-48
31938632,2134,2556,-2243,-12,18,-71
31941817,2216,2722,-2342,-18,-8,-83
31945027,2316,2865,-2386,-4,-1,-58
31948150,2012,2250,-1993,-19,13,-75
31951360,2431,3185,-2565,13,-49,-50
31954569,2418,2998,-2718,18,2,10
31957519,2133,2462,-2160,37,139,-56
31960729,1913,2516,-2128,-55,-72,-29
31964075,2327,2494,-2315,-23,21,-130
31967322,2282,2968,-2376,56,57,-120
31970531,2155,2820,-2379,-5,-13,-37
31973741,2211,2754,-2270,-8,-5,-12
31976864,2200,2735,-2273,-10,-23,0
31979987,2261,2684,-2330,23,42,-14
31983110,2145,2605,-2298,30,39,-39
31986236,2100,2602,-2223,-21,-9,-38
31989467,2250,2745,-2338,-24,-20,-43
31992739,2258,2829,-2397,13,53,-32
31995862,2164,2721,-2226,-7,17,-7
31998899,2242,2768,-2332,-16,5,25
32001935,2287,2753,-2372,-4,28,27
32004971,2163,2644,-2241,6,43,13
32007921,2156,2660,-2299,-22,2,14
32010960,2171,2610,-2296,-21,27,4
32014017,2273,2752,-2288,-19,12,4
32017064,2301,2799,-2339,-18,24,33
32020152,2280,2769,-2336,-20,37,39
32023275,2220,2759,-2317,-24,41,59
32026398,2265,2702,-2332,-39,33,63
32029521,2207,2629,-2260,-26,40,45
32032644,2152,2594,-2180,-42,23,30
32035767,2247,2712,-2254,-37,9,28
32038828,2290,2793,-2341,-24,38,36
32041927,2268,2788,-2335,-24,31,51
32045050,2270,2755,-2298,-43,26,61
32048173,1989,2089,-1952,-52,37,18
32051296,2055,2338,-1849,-22,-69,-77
32054592,2763,3672,-3234,42,-4,81
32057628,2274,2773,-2385,76,273,55
32060751,1826,2700,-2042,-104,-82,140
32064237,2359,2208,-2241,-75,89,-15
32067344,2348,2670,-2173,52,92,-65
32070467,2016,2439,-2180,-37,28,-5
32073590,2128,2544,-2059,-44,-16,-41
32076887,2240,2854,-2344,-17,-70,-16
32080183,2444,2992,-2489,50,-11,2
32083220,2365,2908,-2422,77,27,8
32086172,2142,2687,-2288,-20,-36,15
32089408,2326,2602,-2393,-31,5,-34
32092502,2251,2577,-2350,-1,69,-93
32095625,2030,2380,-2116,-1,55,-135
32098835,2098,2548,-2100,-18,-18,-156
32102218,2338,2971,-2427,44,-16,-106
32105514,2280,2932,-2381,74,13,-65
32108637,2206,2827,-2353,48,-44,-21
32111870,2204,2645,-2391,17,-5,-38
32114970,2224,2563,-2310,18,-2,-77
32118132,2131,2526,-2270,8,8,-108
32121129,2149,2575,-2243,6,-3,-140
32124252,2225,2847,-2408,12,-11,-130
32127549,2294,2990,-2518,29,-22,-74
32130759,2277,2831,-2374,35,21,-24
32133882,2110,2652,-2240,0,-24,-18
32137029,2215,2579,-2321,10,8,-48
32140041,2202,2598,-2337,26,27,-80
32143164,2120,2595,-2319,15,32,-82
32146287,2163,2759,-2348,-16,-20,-65
32149583,2271,2844,-2430,-3,21,-31
32152706,2263,2855,-2403,-8,21,5
32155656,2246,2810,-2349,-15,31,37
32158779,1958,2116,-1841,-51,20,-32
32162037,2334,3042,-2534,-12,-21,20
32165198,2358,2859,-2696,0,62,43
32168148,2105,2692,-2172,8,131,18
32171184,2033,2670,-2195,-116,-90,103
32174567,2413,2644,-2342,-31,92,31
32177690,2252,2843,-2289,-5,97,79
32180727,2116,2558,-2151,-74,43,122
32183936,2194,2614,-2140,-76,26,101
32187171,2221,2740,-2283,-53,25,94
32190269,2284,2750,-2308,-29,51,91
32193392,2241,2783,-2310,-30,40,105
32196602,2280,2791,-2316,-77,10,125
32199812,2391,2805,-2316,-66,37,118
32203021,2290,2668,-2259,-49,89,107
32206231,2159,2508,-2121,-66,39,74
32209354,2223,2625,-2185,-61,28,62
32212500,2273,2751,-2283,-28,37,51
32215600,2254,2762,-2273,-21,38,54
32218758,2269,2749,-2257,-35,-4,71
32221846,2318,2694,-2264,-37,26,55
32224969,2283,2705,-2260,-22,22,41
32228092,2225,2606,-2214,-22,40,3
32231128,2226,2602,-2195,-21,13,-29
32234338,2240,2686,-2272,-14,5,-37
32237486,2272,2725,-2313,-1,-9,-48
32240584,2266,2729,-2297,9,10,-49
32243620,2254,2688,-2289,5,-21,-58
32246743,2269,2703,-2298,13,0,-67
32249780,1940,2062,-1928,7,4,-129
32252816,1932,2085,-1678,1,-65,-275
32256026,2713,3800,-3081,101,-76,-87
32259322,2395,3018,-2641,165,244,-81
32262667,1781,2743,-2083,-17,-77,-2
32265828,2293,2195,-2277,-48,15,-135
32269125,2248,2721,-2279,94,78,-207
32272335,1930,2357,-2162,24,7,-145
32275458,1920,2400,-1955,0,-30,-187
32278667,2154,2836,-2284,24,-127,-143
32282051,2466,3126,-2593,104,-41,-105
32285434,2258,2961,-2552,137,-1,-69
32288668,2136,2730,-2388,-4,-53,-23
32291853,2223,2587,-2407,-13,8,-91
32294976,2156,2484,-2340,17,90,-136
32298186,1974,2337,-2064,0,48,-177
32301309,2084,2647,-2219,-8,-6,-161
32304519,2289,3037,-2487,28,-16,-98
32307729,2277,3082,-2465,74,8,1
32310591,2185,2921,-2410,25,-26,67
32313738,2198,2605,-2373,-3,-2,75
32316751,2162,2516,-2307,-24,31,42
32319909,2115,2462,-2301,-30,34,15
32322997,2096,2474,-2223,-39,47,-26
32326206,2209,2818,-2291,-34,20,-6
32329329,2353,3055,-2519,-31,13,64
32332452,2337,2941,-2440,-12,51,139
32335662,2176,2634,-2202,-53,32,159
32338896,2233,2529,-2240,-59,33,132
32342082,2210,2515,-2245,-43,85,78
32345205,2127,2527,-2215,-50,62,59
32348328,2194,2673,-2320,-86,34,65
32351451,2321,2854,-2388,-71,38,86
32354574,2342,2899,-2334,-62,65,122
32357783,1973,2038,-1775,-98,43,81
32360910,2501,3260,-2629,-59,-1,121
32364165,2433,2896,-2708,-36,138,124
32367413,2042,2616,-1992,-47,102,74
32370622,2074,2430,-2106,-188,-110,126
32374092,2417,2563,-2242,-17,115,-22
32377389,2246,2963,-2337,-24,45,62
32380512,2207,2673,-2183,-69,36,99
32383635,2236,2709,-2142,-56,13,88
32386782,2298,2753,-2301,-46,-8,78
32389881,2318,2619,-2300,-2,59,32
32392917,2135,2574,-2178,16,46,-6
32395953,2195,2700,-2280,-48,-25,-6
32399163,2379,2822,-2354,-11,13,-33
32402373,2260,2742,-2242,5,51,-31
32405409,2226,2637,-2153,-8,-3,-31
32408532,2231,2670,-2246,3,7,-45
32411505,2258,2677,-2279,25,0,-67
32414518,2189,2674,-2250,33,-3,-91
32417641,2209,2683,-2285,30,-34,-94
32420886,2208,2624,-2234,35,-21,-118
32424147,2292,2810,-2351,25,-37,-108
32427444,2298,2735,-2308,44,8,-116
32430567,2192,2665,-2250,38,1,-126
32433690,2214,2709,-2323,27,-36,-118
32437011,2190,2658,-2313,46,7,-140
32440109,2105,2606,-2248,48,-27,-144
32443406,2209,2685,-2290,35,-43,-140
32446702,2277,2781,-2389,59,-11,-128
32449999,1846,1972,-1895,33,7,-154
32453122,2108,2607,-1953,21,-129,-254
32456505,2801,3981,-3378,106,-98,-55
32459801,2163,2747,-2366,149,281,-51
32463146,1704,2712,-2175,-94,-153,87
32466394,2345,2098,-2283,-115,-7,-30
32469691,2114,2753,-2229,72,42,-111
32472901,1977,2373,-2223,-31,12,-44
32476110,2092,2624,-2105,-7,-4,-62
32479233,2184,2955,-2414,-5,-78,7
32482270,2428,3090,-2650,33,-41,68
32485393,2368,2889,-2557,64,66,81
32488453,2097,2613,-2338,-57,-30,94
32491639,2330,2560,-2378,-80,42,50
32494762,2225,2515,-2312,-43,117,-15
32498058,2005,2364,-2057,-59,93,-38
32501268,2160,2702,-2211,-65,10,-7
32504391,2362,2996,-2469,-5,46,47
32507427,2273,2966,-2442,3,35,101
32510463,2224,2826,-2378,-33,-1,154
32513696,2222,2549,-2327,-61,27,131
32516883,2167,2486,-2222,-67,55,87
32520006,2184,2521,-2240,-84,26,53
32523164,2181,2537,-2210,-69,70,9
32526165,2222,2785,-2246,-69,9,31
32529201,2373,3063,-2469,-48,23,93
32532324,2299,2814,-2328,-32,63,113
32535534,1910,2053,-1825,-69,35,81
32538682,2360,2807,-2241,-68,-50,20
32541867,2508,2985,-2685,2,48,52
32544816,2136,2510,-2251,19,182,-12
32548026,1965,2761,-2147,-132,-109,71
32551409,2428,2613,-2353,-88,38,-3
32554532,2328,2954,-2271,30,100,-25
32557742,2165,2754,-2280,-35,9,52
32560778,2168,2551,-2112,-43,18,31
32563962,2132,2547,-2120,-32,-16,-9
32567111,2319,2754,-2378,-3,-16,-19
32570321,2263,2721,-2245,36,55,-45
32573444,2160,2738,-2189,-3,-26,-34
32576654,2353,2853,-2409,-37,-42,-4
32579863,2373,2816,-2402,24,69,-31
32582986,2069,2505,-2046,6,31,-47
32586026,2195,2586,-2241,-17,-37,-60
32589344,2263,2719,-2334,39,29,-84
32592442,2149,2719,-2232,61,5,-91
32595478,2209,2838,-2346,33,-38,-54
32598688,2268,2762,-2353,34,-3,-47
32601811,2244,2722,-2277,37,-1,-38
32604934,2258,2649,-2345,11,-13,-37
32608144,2192,2552,-2264,32,37,-76
32611270,2119,2602,-2219,21,-14,-93
32614500,2233,2760,-2384,29,-19,-78
32617686,2207,2764,-2333,42,13,-73
32620809,2182,2709,-2275,26,-28,-52
32624054,2310,2796,-2392,12,-27,-37
32627229,2281,2736,-2399,37,28,-41
32630352,2162,2598,-2267,16,24,-47
32633475,2158,2632,-2339,-9,-16,-53
32636709,2217,2668,-2364,7,28,-69
32639721,1978,2340,-2082,1,5,-86
32642670,1985,2240,-1750,-24,-53,-170
32646054,2697,3755,-3044,51,-102,-35
32649350,2600,3243,-3040,103,236,51
32652560,1878,2733,-2167,-46,-9,117
32655770,2192,2180,-2255,-171,-56,83
32659066,2262,2442,-2159,-4,125,-94
32662324,2086,2615,-2283,-43,31,-26
32665486,2059,2494,-2015,-62,26,-37
32668695,2178,2893,-2253,-42,-70,19
32671905,2468,3105,-2603,-10,-40,78
32675115,2412,2958,-2511,55,68,90
32678151,2091,2660,-2279,-48,2,103
32681274,2229,2533,-2389,-86,4,61
32684310,2278,2547,-2368,-50,105,-21
32687631,2079,2422,-2106,-56,78,-46
32690817,2157,2624,-2138,-75,22,-51
32694026,2348,2947,-2340,-15,29,15
32697149,2366,3021,-2389,11,50,70
32700186,2232,2857,-2388,-6,-4,112
32703309,2189,2556,-2321,-32,25,96
32706432,2142,2463,-2178,-44,16,40
32709555,2180,2546,-2265,-56,16,5
32712614,2238,2564,-2224,-43,35,-41
32715801,2225,2767,-2184,-42,10,-31
32719010,2056,2342,-2057,-62,-5,-69
32722220,2625,3581,-2837,24,-15,29
32725378,2391,2974,-2697,26,57,85
32728379,2054,2496,-1940,8,129,8
32731329,1977,2459,-2046,-114,-118,42
32734712,2283,2211,-2139,4,113,-150
32737946,2155,2856,-2291,28,28,-100
32741132,2169,2734,-2279,-37,7,-36
32744255,2279,2904,-2199,-14,-10,-23
32747551,2290,2953,-2394,-3,-34,29
32750674,2341,2790,-2430,39,51,20
32753710,2105,2565,-2215,24,27,-8
32756747,2063,2492,-2133,-47,-54,-21
32760043,2307,2665,-2323,-5,16,-64
32763215,2206,2749,-2241,26,53,-79
32766289,2202,2792,-2251,10,-10,-37
32769499,2331,2932,-2408,18,17,9
32772448,2281,2852,-2389,37,22,22
32775485,2168,2652,-2274,18,12,20
32778521,2177,2578,-2269,13,1,-5
32781470,2146,2468,-2197,12,25,-45
32784593,2224,2685,-2276,8,-20,-48
32787741,2299,2805,-2373,14,14,-38
32790839,2249,2784,-2324,30,27,-26
32793962,2256,2899,-2398,2,-10,7
32796912,2337,2782,-2458,6,1,30
32799775,2195,2567,-2283,13,51,5
32802724,2112,2453,-2164,-11,-7,-18
32805934,2225,2585,-2306,-20,-9,-42
32809144,2273,2719,-2338,17,32,-62
32812290,2202,2760,-2286,-2,2,-26
32815303,2277,2862,-2441,-13,-9,1
32818339,2309,2809,-2426,-3,40,10
32821375,2162,2608,-2242,-15,22,11
32824498,1772,1652,-1552,-65,0,-131
32827743,2397,3121,-2474,5,-99,-130
32830918,2759,3631,-3249,69,37,12
32833954,2270,2963,-2465,89,232,23
32837102,1831,2712,-2156,-198,-158,163
32840547,2427,2430,-2291,-64,97,-30
32843757,2227,2792,-2300,21,90,-33
32846880,1984,2239,-2088,-62,65,-3
32850003,1938,2331,-1824,-72,-53,-44
32853299,2324,2959,-2443,-47,-95,-7
32856509,2475,3081,-2546,69,33,3
32859459,2244,2944,-2389,57,25,46
32862543,2241,2818,-2387,-53,-46,96
32865705,2356,2628,-2379,-65,34,38
32868828,2214,2480,-2266,-39,99,-48
32872037,1990,2305,-2019,-72,50,-102
32875334,2152,2615,-2152,-48,17,-107
32878630,2285,2987,-2343,-10,10,-65
32881840,2312,3099,-2418,33,-2,24
32884876,2274,2940,-2424,7,0,79
32887764,2201,2657,-2279,-19,-8,64
32890862,2179,2532,-2239,-35,11,25
32893985,2155,2419,-2183,-25,33,-34
32897195,2092,2481,-2083,-36,42,-84
32900405,2232,2853,-2258,-35,-27,-76
32903701,2355,3064,-2479,16,35,-7
32906737,2276,2924,-2359,17,19,36
32909774,2195,2655,-2210,-11,-11,49
32913007,2252,2571,-2261,-4,11,10
32916020,1870,1891,-1754,1,54,-96
32919056,2282,2990,-2427,9,-61,-86
32922179,2448,3054,-2756,21,14,-32
32925302,2217,2783,-2250,41,129,-54
32928546,2052,2877,-2271,-94,-123,72
32931808,2404,2700,-2368,-4,81,-18
32934931,2145,2703,-2265,51,71,-6
32937992,2012,2391,-2172,-36,-6,15
32941090,2155,2486,-2134,-16,-8,-29
32944300,2187,2703,-2274,6,-11,-36
32947423,2315,2932,-2408,35,-10,-2
32950546,2346,2895,-2458,33,32,30
32953582,2264,2802,-2346,-10,-5,64
32956705,2280,2657,-2323,-33,21,56
32959828,2228,2524,-2310,0,62,14
32962827,2058,2384,-2094,-5,59,-32
32965901,2113,2561,-2183,-16,-11,-50
32969197,2311,2833,-2421,22,19,-29
32972320,2305,2903,-2406,33,3,0
32975183,2274,2929,-2415,1,-10,55
32978219,2299,2756,-2425,-13,9,53
32981256,2224,2597,-2308,-12,48,24
32984379,2152,2474,-2233,-29,15,-13
32987613,2172,2526,-2257,-27,34,-57
32990798,2204,2683,-2289,-16,5,-69
32993921,2273,2830,-2427,-13,2,-39
32997044,2325,2887,-2410,-3,7,8
32999907,2299,2793,-2330,-8,23,26
33002943,2247,2674,-2264,-25,9,15
33005979,2218,2620,-2293,-16,41,-7
33009102,2141,2526,-2220,-22,34,-47
33012335,2074,2483,-2176,-34,10,-66
33015522,2079,2394,-1949,-43,-33,-144
33018905,2446,3315,-2686,21,-30,-31
33022115,2397,3049,-2486,51,98,-15
33025238,2320,3342,-2644,13,-10,110
33028451,2221,2390,-2368,-85,44,107
33031692,2138,2448,-2055,-43,33,-12
33034867,1995,2328,-2198,-95,4,-45
33038015,2182,2564,-2139,-12,70,-112
33041287,2086,2812,-2199,-22,-15,-54
33044583,2315,2986,-2313,-33,-69,19
33047793,2383,2968,-2444,39,21,46
33050829,2248,2779,-2351,4,-5,58
33053779,2296,2722,-2394,-12,28,41
33056902,2134,2491,-2265,-26,47,-29
33060111,2078,2454,-2165,-54,36,-72
33063424,2195,2617,-2239,-49,19,-102
33066618,2270,2804,-2260,-6,37,-70
33069741,2273,2963,-2287,1,8,-8
33072603,2280,2968,-2375,11,-1,43
33075640,2229,2711,-2307,16,25,49
33078676,2103,2558,-2250,3,6,26
33081539,2122,2534,-2226,-25,-14,-9
33084748,2174,2515,-2225,-10,18,-52
33087983,2199,2724,-2261,-13,-1,-59
33091168,2315,2914,-2397,-6,3,-27
33094204,2337,2925,-2399,11,25,10
33097240,2222,2811,-2324,2,8,54
33100103,2201,2671,-2286,-5,5,44
33103053,2163,2509,-2259,11,25,-2
33106089,2124,2504,-2203,9,13,-33
33109125,1914,2110,-1976,-9,10,-79
33112271,2403,3184,-2387,30,-76,-73
33115458,2649,3382,-3031,55,30,38
33118494,2152,2774,-2079,57,186,7
33121530,1945,2679,-2199,-110,-129,117
33125000,2345,2171,-2264,-62,68,-25
33128210,2193,2740,-2225,37,13,-49
33131336,2064,2393,-2173,-48,10,-36
33134582,2179,2724,-2143,-14,-16,-66
33137864,2291,2982,-2455,-11,-55,-1
33141049,2451,3034,-2557,49,33,37
33144085,2320,2892,-2457,31,56,67
33147122,2140,2604,-2286,-58,-26,62
33150331,2239,2473,-2287,-39,50,-4
33153454,2156,2472,-2250,-6,66,-53
33156577,2075,2477,-2107,-23,43,-70
33159787,2255,2816,-2275,-22,-21,-52
33163132,2416,3050,-2491,24,25,30
33166120,2288,2878,-2386,23,19,62
33169156,2234,2733,-2355,-8,7,89
33172106,2197,2441,-2234,-32,27,48
33175229,2146,2488,-2207,-30,26,-4
33178352,2205,2528,-2204,-39,17,-31
33181561,2206,2590,-2213,-20,34,-56
33184771,2267,2923,-2346,-27,-5,-1
33187919,2366,2977,-2477,-8,13,38
33190930,2273,2785,-2327,-12,46,57
33194053,2167,2549,-2232,-35,7,43
33197090,2228,2484,-2278,-47,22,-3
33200213,2163,2476,-2199,-21,36,-52
33203422,1889,2046,-1663,-58,0,-172
33206632,2281,2931,-2228,3,-131,-109
33209929,2738,3676,-3128,80,119,33
33213075,2152,2976,-2240,61,173,91
33216175,2028,2509,-2134,-177,-111,170
33219645,2307,2212,-2150,-41,111,-60
33222941,2059,2416,-2138,-16,55,-94
33226151,1969,2322,-2015,-53,32,-106
33229447,2057,2653,-2016,-32,-76,-77
33232744,2418,3207,-2545,8,-86,5
33235728,2497,3200,-2610,87,10,58
33238754,2272,2880,-2413,47,27,89
33241766,2168,2534,-2253,-43,-18,79
33244976,2241,2454,-2306,-46,52,-18
33248185,2093,2283,-2148,-18,92,-102
33251482,2024,2478,-2005,-32,24,-149
33254778,2296,2982,-2353,-1,-27,-99
33257988,2364,3163,-2471,56,19,-18
33261115,2303,3069,-2460,67,-7,63
33264196,2259,2815,-2433,20,-3,97
33267184,2136,2430,-2275,0,12,33
33270133,2102,2337,-2178,-11,14,-32
33273343,2147,2432,-2205,-15,5,-95
33276466,2186,2689,-2236,1,23,-114
33279589,2325,3072,-2457,0,-29,-57
33282712,2441,3133,-2547,23,10,26
33285752,2287,2847,-2400,30,32,65
33288809,2144,2533,-2206,-1,10,60
33291821,2171,2423,-2234,-16,3,-1
33294857,2135,2412,-2232,12,51,-68
33297980,2084,2516,-2186,-13,-4,-99
33301190,2272,2910,-2417,-15,-15,-65
33304486,1998,2127,-1811,-30,21,-93
33307696,2597,3625,-2784,23,-60,1
33310732,2581,3268,-3004,31,30,110
33313878,2060,2438,-2049,14,103,32
33316978,1787,2327,-2023,-180,-136,70
33320361,2270,2303,-2179,-24,95,-129
33323658,2199,2844,-2288,38,32,-94
33326781,2207,2793,-2366,-33,-2,-8
33329904,2345,3030,-2375,-13,-9,51
33333027,2343,2947,-2449,-18,-18,101
33336366,2319,2715,-2366,1,52,84
33339273,2099,2445,-2222,1,57,47
33342222,2068,2365,-2116,-70,10,-5
33345345,2201,2541,-2223,-50,4,-60
33348468,2284,2778,-2337,-20,46,-65
33351678,2225,2804,-2288,-15,18,-25
33354888,2322,2964,-2403,-24,-1,33
33358011,2366,2896,-2432,-4,18,61
33361051,2182,2554,-2273,0,59,32
33364045,2073,2480,-2210,-37,-5,5
33367033,2151,2443,-2181,-45,13,-50
33370243,2193,2622,-2236,-26,12,-80
33373452,2261,2825,-2308,-19,7,-48
33376575,2299,2919,-2297,-13,13,-21
33379785,2295,2916,-2398,-4,20,22
33382821,2220,2761,-2341,-14,16,41
33385948,2152,2543,-2219,-12,42,15
33389092,2069,2412,-2109,-28,6,-33
33392190,1684,1518,-1438,-49,-1,-159
33395487,2396,3179,-2568,28,-67,-109
33398783,2540,3268,-2800,84,63,-60
33401906,2415,3601,-2591,79,60,65
33404943,2163,2705,-2433,-82,-23,191
33408239,2215,2438,-2164,-29,80,27
33411387,2048,2198,-2136,-62,7,-6
33414398,2046,2229,-1989,-16,110,-108
33417782,1959,2559,-1993,-10,-25,-94
33421078,2247,2950,-2297,-2,-76,-9
33424201,2505,3183,-2525,88,-6,45
33427237,2384,3105,-2546,66,20,116
33430360,2316,2791,-2448,0,-19,127
33433483,2258,2479,-2379,-21,56,51
33436648,2080,2261,-2174,-38,72,-30
33439816,2044,2250,-2057,-49,60,-108
33443113,2176,2591,-2170,-18,11,-114
33446409,2337,3043,-2380,27,16,-43
33449532,2367,3194,-2501,39,-16,49
33452655,2343,2949,-2460,39,14,112
33455778,2235,2612,-2324,7,4,97
33458641,2133,2366,-2222,-21,16,55
33461812,2147,2291,-2164,-36,27,-57
33464974,2118,2412,-2158,-29,15,-99
33468183,2292,2895,-2372,-31,-4,-67
33471393,2410,3112,-2532,8,18,-1
33474343,2356,2973,-2453,4,13,65
33477292,2275,2746,-2310,-7,16,87
33480328,2206,2486,-2245,-17,19,44
33483451,2108,2350,-2211,-8,39,-24
33486599,1907,2030,-1923,-34,12,-103
33489871,2444,3231,-2559,-7,-70,-123
33493167,2551,3337,-2876,14,23,-28
33496290,2286,2970,-2312,39,125,-7
33499413,2114,2850,-2245,-86,-74,94
33502623,2330,2380,-2302,-15,90,-40
33505833,2104,2547,-2200,15,52,-54
33508956,1985,2305,-2120,-51,-2,-71
33512190,2101,2552,-2083,-31,-4,-116
33515462,2280,2967,-2372,-15,-51,-60
33518759,2450,3115,-2542,35,24,-3
33521795,2245,2898,-2431,24,34,41
33524831,2169,2667,-2321,-43,-9,56
33527954,2218,2480,-2293,-46,23,-8
33531077,2094,2385,-2169,-5,70,-76
33534200,1998,2360,-2031,-23,18,-119
33537538,2145,2730,-2258,-12,-31,-104
33540880,2358,3090,-2462,19,3,-48
33543916,2313,3017,-2415,34,14,14
33546952,2277,2856,-2356,-4,1,52
33549902,2164,2534,-2230,-14,24,29
33553025,2104,2435,-2183,-24,26,-31
33556235,2078,2441,-2183,-21,8,-85
33559358,2123,2590,-2173,-11,19,-106
33562715,2256,2951,-2369,0,-22,-59
33565777,2354,3053,-2499,5,7,5
33568553,2314,2943,-2397,18,26,49
33571589,2186,2666,-2243,-11,25,57
33574712,1665,1463,-1474,-49,22,-61
33577922,2248,2824,-2208,-3,-79,-160
33581219,2737,3715,-3280,87,67,23
33584255,2139,2941,-2197,90,242,15
33587402,1889,2772,-2098,-169,-178,185
33590848,2502,2421,-2328,-90,68,49
33593971,2329,2886,-2348,41,80,35
33597007,1960,2344,-2202,-56,68,52
33600130,1930,2195,-1816,-59,-27,-3
33603340,2253,2832,-2372,-35,-85,22
33606550,2468,2989,-2477,53,2,35
33609499,2306,3004,-2435,88,48,75
33612560,2269,2914,-2488,-28,-46,149
33615832,2423,2732,-2438,-40,71,103
33619042,2187,2454,-2251,-29,123,39
33622251,1968,2176,-1963,-54,81,-23
33625461,2124,2422,-2091,-52,16,-61
33628671,2333,2903,-2359,1,21,-37
33631707,2365,3026,-2394,38,7,41
33634657,2345,3024,-2475,22,-18,115
33637908,2309,2697,-2376,-14,7,119
33640989,2262,2566,-2316,-24,19,86
33644112,2212,2372,-2234,-37,40,17
33647235,2098,2310,-2114,-36,47,-59
33650445,2214,2660,-2242,-50,-13,-90
33653742,2417,3000,-2493,1,5,-35
33656691,2372,2988,-2435,9,32,7
33659554,2245,2779,-2270,-19,-23,40
33662812,2331,2643,-2367,-26,4,13
33665800,2011,2117,-2063,-4,57,-73
33668923,2138,2623,-2140,-20,-23,-160
33672306,2347,3000,-2655,-11,-50,-92
33675603,2290,2755,-2396,24,128,-125
33678899,2060,2866,-2215,-65,-103,-25
33682282,2439,2642,-2376,-59,-11,-45
33685579,2209,2768,-2279,43,57,-68
33688731,2013,2421,-2162,-30,-7,-51
33691912,2082,2493,-2169,-31,-27,-103
33695295,2156,2629,-2253,2,-36,-123
33698505,2326,2922,-2411,26,-17,-98
33701714,2292,2919,-2422,43,11,-57
33704837,2212,2842,-2306,-15,-15,-20
33708134,2220,2722,-2333,-21,-6,-16
33711368,2220,2579,-2270,7,66,-66
33714380,2004,2418,-2077,1,21,-105
33717503,2133,2644,-2242,-11,-28,-110
33720886,2265,2886,-2410,22,-7,-90
33724009,2248,2947,-2354,32,11,-62
33727132,2231,2910,-2370,-1,-23,14
33730255,2258,2753,-2364,1,37,10
33733205,2155,2601,-2217,-14,19,-11
33736438,2100,2502,-2223,-20,29,-43
33739659,2133,2576,-2234,-10,13,-71
33742834,2158,2750,-2283,-8,15,-52
33745957,2238,2904,-2337,-2,-4,2
33748906,2283,2924,-2365,9,34,45
33751856,2260,2776,-2317,-1,23,62
33754892,2196,2696,-2299,-13,37,69
33758015,2202,2612,-2341,-15,47,49
33761142,2102,2550,-2199,-15,47,26
33764310,1662,1590,-1541,-60,12,-58
33767471,2418,3243,-2422,2,-99,-96
33770594,2865,3975,-3368,65,-28,120
33773804,2399,2976,-2493,74,241,156
33777013,1904,2547,-2109,-199,-148,297
33780483,2389,2070,-2206,-79,127,76
33783693,2159,2633,-2226,12,59,33
33786754,2004,2355,-2257,-75,47,21
33789852,2166,2736,-2084,-52,-11,12
33793062,2409,3095,-2492,-38,-95,89
33796272,2595,3112,-2534,37,30,137
33799395,2366,2905,-2428,64,65,150
33802518,2232,2669,-2359,-71,2,154
33805641,2309,2455,-2364,-59,68,51
33808764,2134,2316,-2181,-43,107,-31
33812085,2055,2283,-1968,-65,33,-88
33815270,2288,2761,-2244,-47,12,-79
33818480,2447,3087,-2437,16,20,15
33821516,2402,3003,-2414,31,11,71
33824552,2297,2903,-2430,-4,-9,100
33827675,2185,2436,-2245,-14,20,46
33830798,2122,2398,-2226,-30,2,-25
