Time,Accel_X,Accel_Y,Accel_Z,Gyro_X,Gyro_Y,Gyro_Z
460355,-5072,8444,-13424,-70,71,-63
460359,-4940,8564,-13412,-73,190,-60
460362,-5044,8496,-13376,-98,64,-104
460366,-5068,8572,-13432,-73,138,-83
460369,-5032,8532,-13436,-119,92,-69
460373,-5036,8440,-13288,-57,98,-83
460376,-5080,8476,-13396,-99,104,-74
460379,-4964,8544,-13500,-60,75,-57
460383,-5012,8532,-13488,-99,203,-59
460386,-5000,8568,-13396,-68,56,-69
460390,-4964,8524,-13408,-98,184,-50
460393,-5008,8492,-13444,-82,58,-85
460397,-5136,8588,-13300,-69,137,-103
460400,-4948,8512,-13424,-102,98,-92
460404,-5132,8408,-13336,-82,115,-57
460407,-5008,8520,-13292,-99,171,-82
460411,-4944,8560,-13316,-70,62,-62
460414,-5016,8548,-13172,-46,193,-57
460418,-5076,8524,-13476,-79,64,-59
460421,-5000,8592,-13424,-26,198,-67
460424,-4900,8640,-13432,-84,95,-54
460428,-4940,8432,-13408,-48,129,-54
460431,-4976,8572,-13400,-91,112,-84
460435,-4972,8436,-13476,-53,104,-75
460438,-4924,8568,-13500,-106,173,-109
460442,-5008,8656,-13488,-68,53,-101
460445,-5008,8504,-13464,-82,191,-72
460449,-5020,8468,-13428,-95,108,-87
460452,-5000,8544,-13528,-53,138,-70
460456,-5040,8612,-13472,-119,105,-70
460459,-5004,8408,-13512,-33,81,-82
460463,-4976,8552,-13508,-68,181,-92
460467,-4888,8528,-13356,-105,74,-80
460470,-5000,8496,-13400,-48,153,-95
460473,-4980,8516,-13372,-108,132,-81
460477,-4960,8436,-13320,-53,73,-65
460480,-5076,8492,-13556,-70,159,-108
460484,-4912,8448,-13412,-92,78,-99
460487,-5060,8584,-13292,-80,143,-70
460491,-5028,8396,-13388,-109,103,-128
460494,-4980,8512,-13396,-63,94,-81
460498,-4976,8476,-13388,-108,178,-112
460501,-5084,8456,-13308,-91,59,-60
460505,-4996,8480,-13384,-67,178,-68
460508,-5028,8612,-13444,-94,72,-96
460512,-4952,8468,-13336,-31,141,-85
460515,-5124,8484,-13376,-99,96,-112
460519,-5040,8512,-13292,-57,107,-104
460522,-5092,8464,-13444,-130,154,-81
460525,-4992,8456,-13404,-76,92,-86
460529,-4920,8500,-13372,-62,193,-81
460532,-4968,8552,-13472,-72,57,-71
460536,-4988,8596,-13320,-51,128,-68
460539,-4964,8620,-13488,-118,106,-84
460543,-4976,8488,-13292,-73,110,-100
460546,-4988,8516,-13260,-113,164,-90
460550,-5028,8552,-13320,-46,103,-63
460553,-4980,8560,-13344,-95,188,-66
460557,-4940,8456,-13440,-58,90,-80
460560,-4976,8576,-13384,-63,185,-64
460564,-5048,8516,-13404,-79,69,-61
460567,-5036,8432,-13268,-39,154,-80
460571,-5000,8500,-13356,-73,103,-103
460574,-5008,8504,-13424,-55,88,-65
460577,-4968,8436,-13484,-111,144,-88
460581,-5024,8556,-13392,-70,78,-95
460584,-4996,8436,-13328,-73,202,-59
460588,-4992,8604,-13380,-67,67,-69
460591,-5068,8492,-13432,-29,160,-56
460595,-4960,8532,-13444,-82,104,-63
460598,-4924,8484,-13420,-16,121,-78
460602,-4964,8508,-13400,-107,181,-109
460605,-4948,8452,-13488,-57,75,-81
460609,-4936,8624,-13476,-79,183,-123
460612,-5052,8532,-13428,-99,79,-74
460616,-5076,8440,-13356,-46,152,-59
460619,-4924,8484,-13508,-93,122,-59
460623,-4900,8632,-13432,-66,113,-47
460626,-5004,8560,-13168,-109,137,-89
460629,-4956,8532,-13344,-93,81,-80
460633,-5012,8592,-13424,-77,210,-87
460636,-4992,8544,-13456,-99,48,-110
460640,-5012,8488,-13444,-43,147,-81
460643,-4936,8460,-13444,-96,102,-94
460647,-5004,8548,-13344,-71,101,-113
460650,-4972,8456,-13512,-86,139,-85
460654,-5052,8612,-13344,-82,69,-96
460657,-4892,8496,-13520,-89,198,-84
460661,-5008,8476,-13440,-89,31,-96
460664,-5004,8500,-13540,-67,183,-67
460668,-4992,8512,-13356,-96,54,-88
460671,-5008,8516,-13480,-75,146,-94
460675,-5104,8504,-13440,-118,116,-100
460678,-4916,8484,-13372,-91,101,-104
460681,-4952,8532,-13320,-117,168,-89
460685,-4984,8440,-13224,-96,97,-119
460688,-5016,8488,-13276,-91,183,-88
460692,-4956,8580,-13504,-82,47,-71
460695,-5120,8564,-13384,-56,191,-89
460699,-5024,8528,-13340,-90,80,-89
460702,-5072,8328,-13356,-46,103,-92
460706,-5004,8512,-13368,-114,165,-118
460709,-5008,8500,-13324,-67,70,-77
460713,-5012,8504,-13208,-81,202,-70
460717,-5056,8448,-13316,-90,87,-96
460720,-5076,8584,-13364,-48,134,-53
460724,-4980,8544,-13504,-109,109,-74
460727,-4976,8628,-13424,-66,89,-47
460730,-5108,8508,-13380,-80,199,-85
460734,-5040,8500,-13344,-79,42,-91
460737,-4988,8572,-13392,-48,188,-75
460741,-5048,8548,-13432,-93,76,-101
460744,-4960,8564,-13276,-21,119,-77
460748,-4912,8496,-13388,-105,155,-75
460751,-5020,8588,-13328,-59,88,-31
460755,-4964,8512,-13444,-98,196,-69
460758,-5008,8488,-13464,-61,53,-65
460762,-5064,8544,-13268,-50,171,-74
460765,-4996,8480,-13456,-69,89,-83
460769,-5144,8536,-13476,-22,132,-43
460772,-4948,8548,-13528,-114,147,-61
460775,-5008,8512,-13456,-46,102,-54
460779,-4904,8552,-13412,-67,151,-60
460782,-4984,8496,-13560,-51,63,-81
460786,-4864,8452,-13568,-81,189,-56
460789,-4952,8492,-13444,-76,85,-74
460793,-4976,8512,-13572,-38,173,-61
460796,-4976,8588,-13336,-99,113,-79
460800,-4956,8520,-13420,-32,79,-74
460803,-5092,8528,-13580,-77,163,-70
460807,-4920,8544,-13396,-42,45,-58
460810,-4908,8504,-13428,-68,185,-77
460814,-4856,8496,-13368,-66,48,-82
460817,-5016,8524,-13420,-37,160,-56
460821,-4904,8476,-13484,-89,116,-90
460824,-4980,8580,-13444,-62,93,-65
460827,-4968,8600,-13488,-86,149,-89
460831,-5028,8516,-13484,-55,53,-107
460834,-4900,8460,-13564,-89,199,-81
460838,-4988,8500,-13356,-114,77,-104
460841,-4904,8484,-13392,-72,131,-89
460845,-4980,8496,-13348,-112,114,-103
460848,-5020,8552,-13476,-65,84,-94
460852,-5020,8424,-13412,-103,189,-82
460855,-4996,8440,-13424,-82,63,-77
460859,-5052,8512,-13452,-81,171,-86
460862,-5052,8552,-13496,-98,68,-93
460866,-4992,8448,-13304,-54,143,-97
460869,-4920,8528,-13320,-124,89,-112
460873,-5012,8576,-13312,-77,91,-99
460876,-5020,8464,-13340,-104,169,-114
460879,-5000,8484,-13256,-88,64,-77
460883,-4972,8504,-13384,-111,206,-81
460886,-4980,8504,-13284,-90,57,-109
460890,-4960,8420,-13508,-39,157,-90
460893,-4948,8588,-13520,-89,122,-88
460897,-5056,8512,-13324,-47,115,-85
460900,-5060,8592,-13212,-118,151,-70
460904,-5064,8476,-13384,-86,76,-61
460907,-5068,8432,-13360,-81,188,-87
460911,-5008,8480,-13336,-93,74,-72
460914,-5016,8548,-13404,-44,143,-80
460918,-5016,8504,-13428,-103,97,-96
460921,-5016,8460,-13356,-55,125,-78
460925,-5020,8424,-13312,-90,162,-101
460928,-4992,8528,-13344,-76,57,-59
460931,-5040,8504,-13216,-75,198,-61
460935,-4956,8496,-13416,-55,71,-74
460938,-4980,8596,-13368,-51,172,-61
460942,-4968,8452,-13448,-80,82,-86
460945,-5016,8544,-13456,-31,141,-58
460949,-4964,8508,-13432,-107,135,-81
460952,-4936,8408,-13416,-57,86,-50
460956,-4996,8496,-13452,-76,182,-95
460959,-5096,8544,-13496,-69,68,-44
460963,-4972,8548,-13344,-35,153,-61
460967,-4964,8448,-13520,-75,120,-74
460970,-4952,8492,-13276,-32,134,-61
460974,-4968,8504,-13400,-86,160,-96
460977,-4952,8496,-13464,-80,81,-59
460980,-4952,8532,-13400,-70,189,-92
460984,-5100,8572,-13460,-62,65,-78
460987,-4952,8492,-13536,-51,149,-53
460991,-4888,8532,-13488,-82,82,-44
460994,-4944,8620,-13344,-28,123,-64
460998,-5060,8504,-13432,-79,148,-105
461001,-4928,8564,-13476,-56,79,-89
461005,-5012,8536,-13588,-81,177,-78
461008,-5008,8612,-13364,-83,49,-94
461012,-4904,8568,-13500,-80,156,-69
461015,-4896,8520,-13508,-104,85,-105
461019,-5020,8476,-13356,-55,131,-82
461022,-4936,8456,-13608,-105,105,-79
461025,-4988,8528,-13408,-68,93,-70
461029,-4936,8496,-13436,-118,183,-78
461032,-5012,8520,-13456,-95,58,-100
461036,-4988,8372,-13492,-67,178,-63
461039,-4916,8468,-13556,-93,58,-110
461043,-4956,8460,-13376,-75,172,-99
461046,-4956,8384,-13420,-92,82,-126
461050,-5044,8496,-13504,-69,144,-111
461053,-5004,8520,-13360,-121,113,-114
461057,-5020,8528,-13528,-88,68,-81
461060,-5008,8516,-13416,-98,206,-114
461064,-5044,8484,-13480,-95,65,-94
461067,-5080,8468,-13316,-72,189,-87
461071,-5052,8492,-13456,-98,69,-63
461074,-5068,8568,-13360,-66,139,-75
461078,-4972,8456,-13384,-117,81,-84
461081,-4928,8432,-13272,-62,119,-71
461084,-5016,8508,-13336,-130,133,-78
461088,-5008,8500,-13376,-95,54,-79
461091,-5076,8592,-13324,-62,181,-85
461095,-5012,8532,-13392,-93,66,-70
461098,-5132,8516,-13444,-39,152,-86
461102,-5088,8604,-13284,-98,109,-89
461105,-5064,8560,-13400,-49,108,-71
461109,-5060,8484,-13336,-120,191,-71
461112,-4996,8492,-13328,-59,73,-86
461116,-4932,8508,-13388,-69,177,-51
461119,-4972,8496,-13320,-85,63,-85
461123,-4908,8544,-13440,-41,169,-83
461126,-5048,8540,-13456,-71,71,-58
461129,-4988,8520,-13376,-66,164,-89
461133,-4956,8564,-13404,-97,140,-64
461136,-4928,8456,-13336,-59,79,-88
461140,-5012,8496,-13368,-77,190,-70
461143,-5004,8556,-13408,-85,60,-89
461147,-4920,8448,-13508,-79,174,-59
461150,-4988,8524,-13492,-91,65,-72
461154,-5000,8520,-13396,-44,139,-70
461157,-4960,8544,-13344,-95,140,-94
461161,-5000,8496,-13408,-53,77,-67
461164,-5052,8492,-13536,-121,154,-78
461168,-4900,8540,-13488,-86,58,-103
461171,-4844,8408,-13444,-60,204,-64
461175,-4940,8452,-13492,-82,75,-103
461178,-4984,8532,-13476,-52,155,-92
461181,-5064,8580,-13488,-99,104,-99
461185,-4980,8500,-13376,-53,96,-79
461188,-5056,8548,-13476,-110,165,-99
461192,-5064,8548,-13404,-84,61,-89
461195,-4976,8452,-13364,-60,181,-48
461199,-5104,8544,-13416,-85,73,-73
461202,-4968,8508,-13364,-54,140,-87
461206,-4980,8484,-13368,-102,100,-84
461209,-5008,8520,-13476,-62,107,-108
461213,-5052,8472,-13436,-112,143,-112
461216,-5016,8532,-13520,-87,77,-86
461220,-4996,8488,-13364,-89,204,-100
461223,-4976,8436,-13320,-78,56,-94
461227,-5116,8536,-13496,-57,161,-81
461230,-5052,8520,-13332,-101,99,-86
461233,-5008,8544,-13380,-52,92,-87
461237,-5012,8452,-13420,-111,159,-120
461240,-5024,8468,-13320,-65,77,-107
461244,-4944,8476,-13368,-67,186,-75
461247,-5008,8568,-13360,-87,64,-82
461251,-5036,8516,-13256,-52,155,-88
461254,-5016,8532,-13484,-98,97,-88
461258,-4952,8552,-13288,-52,130,-62
461261,-4944,8572,-13412,-109,166,-105
461265,-5004,8384,-13396,-66,73,-72
461268,-4968,8556,-13276,-70,186,-86
461272,-4964,8464,-13484,-66,54,-95
461275,-5016,8540,-13468,-55,165,-87
461279,-5012,8608,-13464,-103,93,-70
461282,-4984,8552,-13432,-71,132,-95
461285,-5028,8584,-13360,-111,152,-90
461289,-5112,8532,-13248,-77,66,-73
461292,-4944,8528,-13420,-76,201,-107
461296,-5028,8452,-13496,-88,69,-110
461299,-4976,8504,-13360,-73,196,-60
461303,-4932,8408,-13360,-94,83,-84
461306,-5000,8564,-13324,-29,137,-65
461310,-5044,8512,-13412,-123,149,-105
461313,-4960,8472,-13492,-79,103,-75
461317,-4972,8472,-13428,-111,196,-74
461320,-4988,8436,-13332,-62,80,-73
461324,-5052,8576,-13384,-56,181,-65
461327,-4996,8572,-13492,-74,68,-61
461331,-5052,8484,-13484,-29,185,-69
461334,-4924,8628,-13300,-113,89,-80
461338,-4988,8612,-13356,-58,74,-67
461341,-4980,8408,-13496,-109,178,-88
461345,-5048,8476,-13384,-63,51,-79
461348,-5012,8396,-13340,-61,186,-94
461352,-5032,8484,-13384,-94,60,-82
461355,-4932,8504,-13476,-27,150,-90
461359,-5004,8496,-13428,-114,102,-105
461362,-5064,8560,-13348,-74,81,-76
461366,-4856,8472,-13512,-91,185,-111
461369,-5024,8440,-13456,-76,66,-98
461373,-5020,8428,-13436,-49,189,-68
461376,-4956,8468,-13352,-111,64,-105
461380,-4984,8448,-13372,-54,112,-76
461383,-5092,8432,-13416,-119,173,-94
461386,-4964,8452,-13524,-70,80,-96
461390,-4908,8508,-13376,-97,158,-65
461393,-4976,8516,-13340,-94,83,-95
461397,-5080,8552,-13524,-59,180,-67
461400,-5008,8512,-13372,-119,78,-77
461404,-4932,8552,-13376,-45,86,-85
461407,-5084,8432,-13424,-91,189,-110
461411,-4988,8448,-13336,-59,74,-74
461414,-4984,8564,-13424,-77,170,-68
461418,-5052,8568,-13332,-106,85,-80
461421,-4936,8420,-13428,-41,136,-73
461425,-5016,8468,-13456,-103,107,-88
461428,-5072,8520,-13264,-49,94,-105
461432,-5012,8508,-13448,-115,194,-52
461435,-4996,8476,-13312,-60,54,-82
461438,-4996,8484,-13288,-52,200,-114
461442,-4940,8508,-13328,-85,65,-86
461445,-5056,8496,-13516,-69,167,-46
461449,-4992,8612,-13284,-98,93,-95
461452,-5008,8508,-13432,-40,86,-93
461456,-4920,8516,-13436,-110,135,-71
461459,-5004,8452,-13484,-79,78,-79
461463,-5028,8380,-13328,-67,202,-63
461466,-4992,8520,-13380,-64,64,-74
461470,-4988,8516,-13332,-56,151,-57
461473,-5048,8524,-13452,-103,105,-72
461477,-4940,8556,-13356,-61,92,-97
461480,-5040,8452,-13308,-102,177,-77
461484,-4924,8436,-13384,-75,68,-77
461487,-4984,8584,-13408,-65,196,-102
461490,-4992,8508,-13420,-79,61,-79
461494,-5008,8476,-13464,-59,156,-86
461497,-4896,8592,-13464,-84,96,-57
461501,-5040,8560,-13456,-49,132,-92
461504,-4976,8440,-13416,-91,108,-74
461508,-4976,8476,-13424,-64,66,-98
461511,-5004,8468,-13468,-107,160,-84
461515,-5068,8560,-13328,-94,44,-109
461518,-4972,8568,-13552,-50,216,-75
461522,-4952,8472,-13340,-103,47,-88
461525,-4996,8556,-13368,-54,144,-93
461529,-4984,8520,-13356,-94,75,-92
461532,-4956,8536,-13448,-70,94,-72
461536,-4968,8580,-13332,-127,158,-79
461539,-5080,8472,-13380,-48,74,-58
461542,-4964,8544,-13404,-49,171,-82
461546,-4852,8544,-13436,-102,63,-69
461549,-5140,8504,-13416,-67,134,-99
461553,-4968,8548,-13452,-111,121,-84
461556,-5032,8468,-13284,-54,113,-88
461560,-5052,8564,-13560,-120,168,-86
461563,-5028,8468,-13424,-87,65,-75
461567,-5028,8600,-13444,-44,196,-78
461570,-5008,8580,-13548,-106,71,-76
461574,-5044,8596,-13412,-53,170,-76
461577,-5004,8488,-13404,-95,79,-71
461581,-4980,8580,-13468,-54,98,-84
461584,-4956,8436,-13532,-135,154,-70
461588,-5048,8560,-13344,-99,67,-90
461591,-4960,8524,-13476,-74,158,-63
461595,-4972,8472,-13348,-84,70,-85
461598,-4980,8544,-13508,-33,103,-67
461602,-5032,8532,-13384,-90,145,-86
461605,-5036,8536,-13388,-78,89,-73
461609,-4960,8536,-13272,-100,191,-76
461612,-5004,8532,-13376,-69,51,-104
461616,-5056,8564,-13388,-74,178,-53
461619,-5024,8476,-13424,-67,75,-111
461623,-5036,8544,-13376,-79,153,-79
461626,-4948,8592,-13480,-101,124,-81
461630,-5096,8528,-13420,-44,104,-88
461633,-5116,8512,-13352,-69,174,-48
461636,-5000,8520,-13356,-84,52,-71
461640,-4996,8536,-13448,-31,162,-52
461643,-5024,8516,-13512,-85,98,-89
461647,-5000,8532,-13460,-60,98,-64
461650,-5052,8556,-13432,-103,157,-52
461654,-4964,8468,-13356,-50,91,-77
461657,-4944,8528,-13280,-78,203,-120
461661,-5044,8632,-13488,-94,72,-71
461664,-4956,8552,-13384,-53,174,-102
461668,-5020,8464,-13420,-105,92,-77
461671,-4996,8572,-13440,-42,83,-56
461675,-4948,8568,-13364,-107,154,-83
461678,-5092,8540,-13316,-75,65,-61
461682,-4988,8504,-13400,-91,164,-86
461685,-4924,8588,-13356,-94,60,-82
461688,-4948,8512,-13412,-62,165,-84
461692,-5056,8528,-13436,-101,95,-95
461695,-4992,8536,-13332,-58,131,-90
461699,-5040,8492,-13324,-126,106,-93
461702,-5044,8488,-13428,-54,84,-82
461706,-4972,8632,-13524,-110,186,-74
461709,-4880,8460,-13480,-58,71,-105
461713,-4928,8540,-13368,-59,191,-53
461716,-5024,8536,-13268,-108,77,-75
461720,-5076,8572,-13472,-44,125,-98
461723,-4984,8536,-13440,-120,107,-104
461727,-5028,8480,-13316,-86,96,-120
461730,-4940,8500,-13412,-123,180,-91
461734,-5052,8508,-13320,-92,52,-109
461737,-5032,8584,-13388,-49,171,-66
461740,-4944,8512,-13528,-94,82,-108
461744,-4948,8524,-13404,-54,128,-89
461747,-5064,8548,-13436,-107,115,-115
461751,-4988,8436,-13432,-62,87,-81
461754,-5008,8548,-13532,-87,183,-111
461758,-5032,8468,-13376,-80,54,-101
461761,-5000,8544,-13384,-64,238,-104
461765,-4928,8540,-13396,-101,71,-91
461768,-4956,8432,-13192,-40,176,-77
461772,-4960,8580,-13340,-116,82,-97
461775,-5052,8448,-13332,-61,113,-68
461779,-5032,8468,-13396,-94,183,-85
461782,-5012,8540,-13292,-65,58,-71
461786,-5156,8480,-13376,-94,176,-57
461789,-5016,8504,-13276,-44,46,-68
461792,-5100,8540,-13380,-49,178,-56
461796,-5024,8504,-13412,-96,77,-64
461799,-4952,8440,-13464,-50,121,-86
461803,-5072,8484,-13436,-109,140,-82
461806,-5024,8528,-13476,-55,42,-49
461810,-4916,8640,-13552,-70,221,-70
461813,-4988,8412,-13444,-80,57,-69
461817,-4984,8412,-13476,-43,151,-70
461820,-4988,8460,-13328,-108,117,-63
461824,-5044,8544,-13504,-27,111,-72
461827,-4916,8544,-13472,-106,159,-96
461831,-5084,8592,-13460,-83,83,-80
461834,-5016,8592,-13496,-46,176,-80
461838,-4900,8520,-13232,-128,104,-106
461841,-4952,8500,-13488,-82,102,-107
461845,-4996,8596,-13292,-114,175,-114
461848,-5032,8516,-13440,-73,68,-67
461852,-5000,8496,-13348,-78,185,-78
461855,-5104,8416,-13420,-75,37,-73
461859,-5128,8528,-13348,-41,164,-86
461862,-4956,8540,-13264,-80,106,-62
461866,-4960,8548,-13464,-56,88,-73
461869,-5004,8492,-13388,-116,155,-116
461873,-5028,8432,-13404,-76,94,-103
461876,-5028,8512,-13456,-89,188,-106
461880,-5072,8540,-13472,-86,70,-134
461883,-4920,8608,-13380,-84,178,-87
461887,-4992,8612,-13336,-118,83,-118
461890,-4940,8508,-13408,-69,131,-55
461893,-5076,8600,-13456,-110,118,-78
461897,-5164,8544,-13496,-30,80,-50
461900,-4976,8532,-13412,-103,190,-80
461904,-5044,8564,-13432,-78,49,-65
461907,-5132,8484,-13356,-76,195,-31
461911,-5020,8500,-13300,-79,56,-89
461914,-5008,8404,-13476,-20,144,-38
461918,-5072,8476,-13388,-86,105,-80
461921,-5160,8444,-13304,-62,114,-42
461925,-5020,8544,-13328,-85,183,-103
461928,-4972,8368,-13444,-54,75,-60
461932,-5104,8472,-13344,-53,198,-26
461935,-4964,8516,-13320,-47,84,-61
461939,-5004,8604,-13596,-2,166,-47
461942,-4964,8428,-13412,-75,86,-64
461945,-4928,8528,-13404,-49,117,-69
461949,-5036,8564,-13468,-109,163,-120
461952,-4908,8596,-13392,-65,60,-79
461956,-5008,8448,-13456,-67,224,-70
461959,-4944,8576,-13416,-75,76,-66
461963,-5004,8444,-13484,-35,151,-54
461966,-4992,8540,-13376,-93,116,-43
461970,-4984,8500,-13444,-43,90,-63
461973,-4856,8464,-13556,-67,153,-57
461977,-5052,8576,-13532,-68,87,-80
461980,-4964,8468,-13508,-69,184,-80
461984,-4976,8528,-13460,-71,89,-109
461987,-4960,8496,-13396,-72,163,-114
461991,-4964,8556,-13544,-104,109,-141
461994,-5004,8532,-13432,-78,137,-109
461997,-5000,8544,-13400,-117,134,-123
462001,-5068,8532,-13632,-72,74,-116
462004,-4988,8412,-13404,-101,186,-80
462008,-4936,8520,-13372,-83,58,-110
462011,-5028,8512,-13540,-50,189,-90
462015,-4960,8544,-13364,-93,49,-97
462018,-4996,8516,-13472,-45,141,-82
462022,-5040,8572,-13400,-96,101,-107
462025,-5016,8508,-13424,-54,99,-98
462029,-5020,8468,-13344,-129,188,-72
462032,-5020,8492,-13488,-75,53,-104
462036,-5052,8484,-13356,-83,194,-89
462039,-4932,8412,-13312,-79,81,-92
462043,-5128,8548,-13392,-72,156,-93
462046,-5052,8480,-13244,-112,102,-102
462049,-4984,8524,-13564,-40,104,-88
462053,-5056,8500,-13520,-110,136,-81
462056,-5040,8536,-13340,-66,88,-77
462060,-4976,8448,-13368,-86,175,-61
462063,-5008,8460,-13376,-96,70,-77
462067,-4976,8624,-13252,-51,158,-70
462070,-4932,8576,-13376,-106,99,-105
462074,-5016,8472,-13332,-54,124,-81
462077,-5024,8468,-13412,-93,109,-74
462081,-5016,8552,-13312,-65,80,-23
462084,-5080,8604,-13528,-77,184,-39
462088,-4948,8544,-13360,-69,42,-62
462092,-5000,8492,-13456,-48,156,-41
462095,-4972,8464,-13320,-86,116,-76
462098,-4916,8492,-13376,-28,121,-48
462102,-4980,8492,-13424,-95,143,-59
462105,-5024,8524,-13304,-52,74,-66
462109,-5012,8512,-13120,-84,207,-70
462112,-4928,8536,-13420,-60,37,-87
462116,-4992,8488,-13412,-38,194,-86
462119,-5004,8564,-13336,-85,66,-96
462123,-4964,8552,-13328,-57,136,-76
462126,-5016,8508,-13432,-98,128,-103
462130,-4936,8520,-13520,-70,92,-74
462133,-4988,8452,-13480,-98,177,-71
462137,-5072,8512,-13340,-74,78,-110
462140,-5024,8592,-13340,-50,187,-106
462143,-4992,8496,-13420,-72,57,-116
462147,-4948,8564,-13552,-59,158,-92
462150,-4920,8500,-13348,-108,136,-102
462154,-5060,8532,-13348,-56,93,-80
462157,-4988,8468,-13432,-89,178,-114
462161,-5000,8508,-13452,-89,99,-90
462164,-4996,8500,-13420,-61,194,-91
462168,-5004,8528,-13564,-87,128,-79
462171,-4964,8480,-13372,-52,130,-80
462175,-4968,8572,-13424,-127,131,-99
462178,-5112,8468,-13328,-100,71,-99
462182,-5076,8552,-13296,-103,193,-87
462185,-5008,8456,-13316,-60,77,-70
462189,-5004,8416,-13288,-73,198,-82
462192,-4992,8440,-13372,-75,78,-109
462195,-4956,8476,-13364,-57,178,-78
462199,-4956,8576,-13412,-106,61,-92
462202,-5100,8528,-13364,-61,122,-80
462206,-5080,8488,-13556,-103,122,-62
462209,-5028,8564,-13388,-69,62,-40
462213,-4996,8548,-13400,-86,201,-59
462216,-4952,8492,-13348,-93,29,-80
462220,-4912,8488,-13460,-57,172,-92
462223,-5028,8516,-13300,-79,74,-114
462227,-5104,8464,-13428,-67,152,-68
462230,-5008,8616,-13496,-110,113,-104
462234,-5012,8464,-13508,-53,86,-64
462237,-4888,8628,-13592,-98,198,-49
462241,-5048,8536,-13456,-84,61,-91
462244,-4888,8496,-13576,-49,179,-36
462247,-5084,8600,-13384,-109,88,-105
462251,-4984,8576,-13340,-39,114,-76
462254,-4940,8496,-13520,-116,150,-99
462258,-5116,8588,-13564,-77,32,-57
462261,-5008,8540,-13504,-109,198,-95
462265,-4984,8556,-13356,-72,52,-139
462268,-5080,8444,-13456,-67,179,-59
462272,-4952,8592,-13392,-91,76,-88
462275,-5044,8472,-13428,-52,136,-41
462279,-5056,8556,-13400,-110,137,-103
462282,-5008,8520,-13332,-83,87,-84
462286,-4928,8520,-13464,-105,212,-94
462289,-5072,8504,-13396,-83,63,-104
462293,-4992,8576,-13424,-59,191,-46
462296,-4912,8440,-13228,-86,76,-123
462299,-4940,8556,-13308,-49,166,-64
462303,-5016,8476,-13312,-98,85,-84
462306,-5000,8576,-13380,-44,91,-94
462310,-4976,8580,-13368,-104,197,-96
462313,-5016,8536,-13276,-75,80,-96
462317,-5100,8520,-13452,-64,195,-71
462320,-5140,8520,-13524,-103,102,-118
462324,-5020,8548,-13216,-41,125,-84
462327,-4996,8528,-13508,-104,144,-79
462331,-5044,8448,-13416,-64,75,-78
462334,-5048,8532,-13536,-71,186,-41
462338,-4936,8568,-13328,-89,67,-88
462341,-4996,8536,-13424,-43,172,-68
462345,-4992,8532,-13380,-90,96,-121
462348,-4948,8392,-13300,-56,124,-90
462351,-5112,8456,-13412,-100,162,-99
462355,-5056,8484,-13352,-82,83,-101
462358,-4964,8504,-13448,-85,179,-87
462362,-4936,8448,-13332,-72,62,-95
462365,-5040,8492,-13344,-37,174,-89
462369,-4984,8380,-13452,-65,91,-88
462372,-5092,8456,-13348,-60,124,-84
462376,-5000,8544,-13352,-98,136,-64
462379,-4936,8512,-13264,-63,93,-74
462383,-5008,8460,-13508,-85,161,-60
462386,-4984,8488,-13404,-86,63,-64
462390,-4988,8592,-13516,-51,187,-59
462393,-5008,8480,-13420,-71,85,-116
462397,-4956,8500,-13288,-19,133,-65
462400,-5048,8428,-13444,-106,121,-71
462403,-5068,8512,-13520,-76,72,-74
462407,-4936,8492,-13400,-103,190,-95
462410,-5024,8548,-13384,-67,61,-65
462414,-4928,8528,-13496,-77,193,-80
462417,-5040,8448,-13612,-104,43,-77
462421,-4952,8452,-13464,-50,143,-47
462424,-5020,8492,-13592,-96,94,-92
462428,-5036,8440,-13476,-85,82,-74
462431,-4976,8432,-13292,-100,176,-75
462435,-4916,8624,-13404,-84,108,-84
462438,-5012,8520,-13500,-57,194,-60
462442,-5000,8512,-13444,-98,87,-84
462445,-5032,8576,-13388,-64,132,-92
462449,-4992,8496,-13644,-92,135,-94
462452,-5072,8620,-13472,-81,73,-104
462455,-5032,8544,-13376,-108,165,-106
462459,-4932,8512,-13300,-97,84,-104
462463,-4968,8440,-13440,-57,170,-99
462466,-4964,8536,-13316,-92,64,-85
462470,-5016,8616,-13316,-27,122,-57
462473,-5004,8416,-13356,-114,142,-100
462477,-4908,8472,-13240,-34,85,-64
462480,-5000,8436,-13340,-110,198,-70
462484,-5108,8548,-13376,-66,47,-60
462487,-4940,8612,-13412,-65,182,-84
462491,-4960,8468,-13444,-86,86,-106
462494,-4896,8492,-13328,-66,137,-92
462498,-5020,8576,-13320,-114,111,-118
462501,-4996,8536,-13420,-75,87,-77
462504,-4944,8456,-13320,-107,180,-93
462508,-4964,8516,-13436,-50,60,-82
462511,-5124,8528,-13612,-74,196,-81
462515,-4948,8556,-13344,-97,48,-78
462518,-5132,8432,-13356,-15,137,-45
462522,-5056,8560,-13396,-92,85,-95
462525,-5004,8488,-13344,-36,90,-46
462529,-4932,8504,-13392,-95,127,-90
462532,-5016,8544,-13432,-72,86,-84
462536,-4952,8524,-13340,-77,194,-99
462539,-4996,8532,-13380,-95,66,-120
462543,-4972,8504,-13332,-54,182,-86
462546,-4964,8420,-13384,-92,60,-71
462550,-5060,8464,-13236,-34,146,-82
462553,-5008,8548,-13424,-90,126,-76
462556,-5000,8548,-13460,-38,75,-55
462560,-5100,8504,-13416,-86,169,-86
462563,-5140,8492,-13340,-53,69,-81
462567,-5064,8592,-13476,-54,153,-66
462570,-5000,8524,-13476,-97,83,-59
462574,-4972,8456,-13400,-66,120,-78
462577,-4944,8520,-13388,-105,157,-110
462581,-4984,8400,-13364,-63,49,-74
462584,-5052,8396,-13404,-100,191,-106
462588,-5056,8560,-13524,-82,49,-95
462591,-5052,8420,-13472,-68,187,-78
462595,-5092,8504,-13516,-41,68,-2
462598,-4804,8420,-13312,-8,167,-101
462601,-5076,8424,-13584,-157,117,-280
462605,-5212,8468,-13728,-178,158,-270
462608,-5060,8456,-13360,-171,147,-114
462612,-5024,8464,-13276,-4,76,115
462615,-5072,8468,-13284,70,144,270
462619,-4944,8540,-13320,72,1,182
462622,-4832,8660,-13476,-12,163,-72
462626,-5028,8628,-13516,-177,63,-295
462629,-4992,8576,-13516,-191,198,-339
462633,-5040,8572,-13464,-187,183,-197
462636,-5072,8504,-13232,-69,122,-13
462640,-4972,8520,-13268,-27,171,91
462643,-4948,8544,-13448,-18,44,-5
462647,-4988,8496,-13308,-61,191,-140
462650,-4932,8428,-13464,-126,65,-234
462654,-4900,8404,-13292,-72,151,-132
462657,-5148,8700,-13680,-34,80,46
462660,-5136,8548,-13408,30,62,163
462664,-4928,8560,-13384,-18,121,73
462667,-4764,8580,-13384,-83,76,-105
462671,-4920,8560,-13512,-170,178,-242
462674,-4920,8492,-13452,-169,98,-324
462678,-4996,8508,-13368,-143,206,-194
462681,-4996,8480,-13420,-137,84,-132
462685,-4968,8472,-13204,-28,135,-92
462688,-5008,8484,-13464,-102,112,-76
462692,-5016,8448,-13388,-31,82,-34
462695,-4976,8424,-13384,-71,164,-31
462699,-4964,8512,-13312,0,55,-25
462702,-5124,8636,-13312,21,166,39
462705,-5132,8704,-13448,-55,36,17
462709,-4940,8472,-13608,-56,133,-92
462713,-5052,8560,-13368,-170,167,-155
462716,-4936,8548,-13216,-144,119,-213
462720,-4952,8560,-13360,-153,214,-204
462723,-4972,8496,-13328,-138,68,-160
462727,-4972,8488,-13332,-66,141,-85
462730,-4992,8520,-13488,4,63,111
462734,-4876,8180,-13356,-12,91,-97
462737,-5216,8424,-13540,-271,177,-452
462741,-5368,8456,-13740,-249,90,-301
462744,-5128,8236,-13424,-163,196,-117
462748,-5116,8520,-13260,-34,62,115
462751,-5192,8604,-13508,171,124,504
462755,-4804,8604,-13372,180,-94,462
462758,-4632,8528,-13124,102,100,160
462761,-4836,8720,-13804,-162,142,-241
462765,-4960,8676,-13616,-268,101,-534
462768,-4980,8576,-13288,-386,306,-564
462772,-5060,8584,-13328,-308,180,-336
462775,-5120,8460,-13072,-60,182,-51
462779,-4944,8580,-13064,21,54,170
462782,-4984,8540,-13280,80,59,148
462786,-4984,8484,-13460,11,29,-13
462789,-5080,8616,-13504,-9,31,-92
462793,-5052,8488,-13464,-104,154,-109
462796,-4884,8476,-13208,-47,59,-22
462800,-4864,8656,-13308,-10,188,64
462803,-4940,8644,-13304,-73,86,-29
462806,-4800,8528,-13268,-85,164,-186
462810,-5020,8572,-13356,-191,132,-316
462813,-5068,8592,-13252,-167,124,-297
462817,-5068,8540,-13372,-124,166,-202
462820,-5108,8500,-13384,-64,93,-38
462824,-5128,8516,-13356,-16,189,67
462827,-4952,8496,-13396,15,19,46
462831,-5036,8500,-13432,-13,152,43
462834,-4920,8468,-13492,75,6,163
462838,-4832,8380,-13544,-43,170,-256
462841,-5300,8520,-14064,-305,220,-525
462845,-5348,8392,-13584,-248,82,-371
462848,-5164,8108,-13368,-273,263,-417
462852,-5348,8316,-13520,-191,147,-88
462855,-5144,8356,-13380,70,148,375
462859,-4796,8476,-13048,252,-80,613
462862,-4672,8512,-13172,326,60,573
462865,-4812,8712,-13488,125,-25,220
462869,-4800,8768,-13644,-115,68,-299
462872,-4872,8604,-13664,-418,282,-674
462876,-5004,8500,-13296,-418,203,-636
462879,-5036,8576,-13248,-306,330,-355
462883,-5092,8540,-13212,-118,119,6
462886,-4964,8396,-13244,69,125,183
462890,-4944,8400,-13328,71,8,44
462893,-4968,8452,-13500,8,82,-116
462897,-5124,8452,-13468,-114,76,-193
462900,-5112,8416,-13352,-65,63,-130
462904,-5076,8492,-13420,-66,215,75
462907,-5092,8496,-13312,-30,69,213
462911,-4864,8488,-13240,52,169,180
462914,-4844,8680,-13444,27,52,92
462917,-4932,8688,-13452,-40,135,-129
462921,-4884,8600,-13368,-161,101,-277
462924,-5028,8592,-13500,-156,139,-299
462928,-5020,8572,-13372,-196,190,-196
462931,-5008,8560,-13216,-119,99,-128
462935,-4980,8524,-13396,-84,226,-58
462938,-4952,8472,-13356,-38,83,-43
462942,-4984,8520,-13448,18,133,-27
462945,-4916,8520,-13392,-53,50,-25
462949,-4944,8556,-13528,33,49,-65
462952,-5036,8580,-13488,-55,107,-31
462956,-4916,8608,-13480,-44,77,-62
462959,-5064,8516,-13460,-83,194,-75
462963,-4948,8408,-13540,-171,96,-260
462966,-4952,8384,-13580,-183,191,-323
462970,-5004,8452,-13516,-222,158,-322
462973,-5180,8396,-13496,-138,106,-236
462977,-5228,8252,-13356,-137,175,-108
462980,-5196,8392,-13388,-8,67,41
462984,-5088,8392,-13300,47,122,219
462987,-4976,8424,-13432,61,25,155
462991,-5032,8532,-13420,54,140,83
462994,-5008,8544,-13572,-107,85,-68
462998,-4952,8560,-13468,-75,120,-177
463001,-4948,8592,-13328,-193,169,-258
463005,-5048,8492,-13456,-193,132,-278
463008,-5052,8508,-13456,-183,234,-306
463012,-5152,8368,-13480,-159,116,-231
463015,-5108,8368,-13272,-108,197,-128
463018,-5180,8348,-13428,-37,101,37
463022,-5192,8412,-13432,59,56,215
463025,-5008,8560,-13232,66,83,235
463029,-4908,8564,-13276,41,45,150
463032,-4928,8564,-13488,-45,168,-12
463036,-4904,8660,-13420,-161,69,-163
463039,-4864,8572,-13484,-152,233,-286
463043,-4960,8556,-13336,-207,137,-290
463046,-4948,8404,-13352,-166,181,-216
463050,-5092,8412,-13316,-147,160,-130
463053,-5080,8544,-13328,-54,78,-55
463057,-5016,8496,-13348,-30,171,-29
463060,-4980,8440,-13360,25,45,42
463064,-4988,8508,-13328,4,139,90
463067,-4948,8464,-13516,13,34,67
463070,-4896,8508,-13520,20,88,50
463074,-4952,8720,-13408,-86,158,-58
463077,-4912,8640,-13456,-106,86,-105
463081,-4848,8552,-13440,-113,217,-203
463084,-5032,8520,-13428,-167,78,-236
463088,-4928,8548,-13284,-119,208,-219
463091,-5080,8424,-13348,-151,119,-203
463095,-5068,8524,-13416,-75,133,-139
463098,-5052,8524,-13372,-92,142,-99
463102,-5024,8512,-13384,-52,35,-9
463105,-5024,8584,-13448,-33,174,14
463109,-4984,8564,-13336,-23,38,-15
463112,-5028,8532,-13304,-20,166,-4
463116,-5000,8568,-13216,-83,87,-74
463119,-5044,8468,-13400,-62,116,-106
463122,-4960,8588,-13452,-146,166,-171
463126,-5092,8488,-13344,-121,103,-212
463129,-4984,8476,-13480,-163,204,-189
463133,-5028,8448,-13412,-114,83,-164
463136,-5144,8516,-13392,-76,176,-81
463140,-5112,8492,-13500,-72,71,-100
463143,-4968,8396,-13420,-17,121,-10
463147,-5072,8404,-13420,-55,97,-38
463150,-4948,8536,-13424,-23,84,-38
463154,-4976,8512,-13440,-92,165,-43
463157,-4976,8540,-13348,-80,63,-83
463161,-5056,8540,-13476,-85,182,-110
463164,-5020,8580,-13396,-84,72,-116
463168,-5068,8404,-13448,-92,177,-104
463171,-5092,8488,-13396,-101,139,-109
463174,-5136,8544,-13392,-72,91,-77
463178,-5016,8408,-13336,-83,178,-64
463181,-4980,8524,-13224,-70,79,-50
463185,-5052,8524,-13400,-60,191,-23
463188,-4980,8540,-13312,-65,40,-48
463192,-5032,8488,-13504,4,162,-19
463195,-4984,8564,-13420,-85,100,-88
463199,-4984,8568,-13396,-64,122,-68
463202,-4996,8584,-13360,-135,131,-117
463206,-4948,8656,-13540,-85,72,-82
463209,-5012,8520,-13544,-106,203,-93
463213,-5008,8480,-13540,-116,81,-121
463216,-4940,8516,-13404,-75,187,-92
463220,-4996,8608,-13352,-116,74,-100
463223,-5028,8524,-13436,-51,93,-64
463226,-5040,8588,-13428,-83,142,-92
463230,-4956,8600,-13324,-51,86,-31
463233,-5012,8560,-13444,-89,182,-56
463237,-5024,8600,-13384,-86,44,-68
463240,-4992,8488,-13132,-66,179,-123
463244,-5032,8556,-13412,-102,93,-113
463247,-5024,8516,-13308,-71,112,-110
463251,-5068,8480,-13412,-123,167,-101
463254,-5020,8504,-13292,-84,77,-117
463258,-4960,8548,-13508,-76,195,-101
463261,-5040,8556,-13304,-93,82,-97
463265,-5036,8488,-13288,-46,140,-46
463268,-4964,8480,-13448,-96,96,-78
463272,-5052,8572,-13392,-48,92,-22
463275,-5012,8536,-13344,-86,165,-48
463278,-4944,8496,-13468,-58,69,-66
463282,-5028,8412,-13400,-59,209,-74
463285,-5040,8548,-13388,-97,59,-90
463289,-4968,8496,-13472,-50,188,-117
463292,-5024,8460,-13296,-108,64,-93
463296,-5028,8468,-13404,-37,115,-90
463299,-5016,8508,-13640,-115,133,-77
463303,-4960,8508,-13360,-51,80,-74
463306,-5012,8508,-13424,-85,202,-79
463310,-4928,8468,-13388,-71,51,-79
463313,-5044,8528,-13324,-40,210,-39
463317,-4984,8468,-13368,-86,68,-51
463320,-4956,8576,-13412,-33,124,-39
463323,-4972,8636,-13368,-110,157,-62
463327,-4888,8408,-13456,-91,68,-122
463330,-4992,8484,-13468,-94,207,-148
463334,-5044,8504,-13388,-101,63,-95
463338,-4980,8484,-13432,-64,137,-79
463341,-4988,8476,-13528,-79,106,-34
463345,-4964,8468,-13460,-44,64,-39
463348,-4976,8576,-13324,-68,179,-42
463352,-5040,8396,-13468,-41,64,-60
463355,-4892,8576,-13460,-58,147,-106
463359,-5076,8584,-13376,-112,108,-119
463362,-5000,8532,-13384,-68,115,-116
463366,-4960,8500,-13328,-123,162,-141
463369,-5012,8548,-13444,-90,88,-94
463372,-5008,8516,-13464,-70,195,-68
463376,-4948,8536,-13304,-57,56,-86
463379,-5040,8464,-13340,-9,134,-24
463383,-4908,8504,-13360,-84,90,-59
463386,-4872,8668,-13296,-51,87,-67
463390,-4976,8460,-13412,-108,163,-116
463393,-4976,8508,-13360,-102,59,-146
463397,-5056,8440,-13468,-105,214,-136
463400,-4984,8564,-13196,-113,39,-101
463404,-5044,8620,-13300,-53,146,-44
463407,-5036,8560,-13384,-118,93,-52
463411,-5020,8524,-13352,-33,56,-51
463414,-4872,8480,-13336,-88,155,-59
463418,-4928,8532,-13540,-80,53,-92
463421,-4992,8448,-13360,-67,190,-105
463424,-5024,8568,-13468,-80,59,-104
463428,-5120,8576,-13496,-34,143,-108
463431,-5024,8532,-13332,-105,115,-142
463435,-4828,8556,-13324,-66,101,-102
463438,-5044,8568,-13444,-134,170,-124
463442,-4992,8460,-13304,-54,94,-116
463445,-4932,8544,-13400,-54,211,-65
463449,-5064,8404,-13380,-68,93,-70
463452,-5036,8408,-13344,-16,158,-34
463456,-5020,8472,-13328,-71,81,-46
463459,-4952,8484,-13396,-35,97,-61
463463,-4940,8532,-13508,-85,147,-125
463466,-4960,8468,-13492,-86,96,-116
463470,-4984,8460,-13608,-91,177,-98
463473,-4928,8548,-13468,-70,59,-60
463476,-5008,8504,-13568,-13,179,-40
463480,-4984,8484,-13496,-77,79,-80
463483,-4968,8496,-13340,-46,97,-139
463487,-4920,8488,-13476,-145,179,-150
463490,-5052,8496,-13400,-139,69,-162
463494,-5020,8476,-13472,-85,191,-81
463497,-4980,8504,-13432,-76,67,-72
463501,-5064,8476,-13388,-36,142,9
463504,-4936,8484,-13332,-50,97,-31
463508,-4972,8512,-13472,-56,101,-37
463511,-4844,8516,-13444,-111,142,-95
463515,-4912,8560,-13432,-118,77,-88
463518,-5060,8532,-13336,-96,172,-110
463522,-5068,8576,-13508,-106,67,-127
463525,-5012,8376,-13308,-95,183,-116
463528,-4964,8476,-13496,-138,116,-168
463532,-5008,8548,-13428,-108,126,-178
463535,-5048,8532,-13368,-124,159,-151
463539,-5052,8560,-13296,-96,80,-86
463542,-4984,8548,-13296,-90,160,-29
463546,-5132,8492,-13472,-63,47,-11
463549,-5020,8532,-13368,-49,171,-38
463553,-5048,8456,-13364,-95,36,-64
463556,-5000,8524,-13396,-69,159,-84
463560,-5016,8612,-13376,-97,92,-97
463563,-4996,8476,-13288,-52,120,-81
463567,-5076,8516,-13268,-106,176,-111
463570,-5128,8520,-13192,-75,77,-60
463574,-5044,8560,-13388,-45,208,-43
463577,-5016,8460,-13296,-60,76,-69
463580,-4980,8484,-13520,-46,159,-50
463584,-5036,8580,-13360,-90,143,-73
463588,-4996,8652,-13300,-43,65,-77
463591,-5052,8520,-13276,-67,186,-52
463595,-5012,8532,-13400,-41,65,-43
463598,-5012,8500,-13236,-34,197,-46
463602,-4960,8536,-13472,-72,68,-80
463605,-5012,8528,-13392,-41,124,-69
463609,-4988,8572,-13376,-117,134,-80
463612,-5044,8544,-13380,-64,85,-66
463616,-5044,8504,-13448,-91,183,-46
463619,-4976,8424,-13360,-84,97,-66
463623,-5028,8432,-13408,-70,174,-84
463626,-5016,8512,-13412,-88,84,-72
463629,-4968,8520,-13408,-24,125,-8
463633,-4988,8576,-13424,-96,164,-21
463636,-4940,8500,-13472,-32,54,1
463640,-4984,8472,-13528,-31,190,-22
463643,-5036,8596,-13524,-108,80,-111
463647,-4952,8512,-13476,-96,187,-137
463650,-4988,8504,-13568,-135,99,-123
463654,-4932,8476,-13536,-67,101,-31
463657,-5016,8504,-13388,-71,138,-32
463661,-5012,8528,-13492,-24,56,-56
463664,-5008,8500,-13504,-90,171,-52
463668,-4860,8520,-13460,-74,34,-109
463671,-5040,8480,-13484,-71,190,-113
463675,-5016,8400,-13372,-110,82,-125
463678,-5000,8640,-13516,-101,145,-164
463681,-4920,8496,-13412,-130,142,-142
463685,-4992,8532,-13452,-98,89,-126
463688,-5008,8532,-13532,-116,150,-139
463691,-5044,8512,-13360,-48,99,-56
463694,-5028,8504,-13376,-84,146,-32
463698,-5112,8572,-13240,-46,74,-73
463701,-5012,8504,-13492,-53,191,-33
463705,-5012,8508,-13400,-79,59,-99
463708,-4984,8552,-13388,-94,180,-105
463712,-5048,8592,-13420,-105,98,-125
463715,-5024,8568,-13556,-103,150,-148
463719,-5024,8508,-13368,-146,148,-171
463722,-5136,8516,-13172,-83,94,-113
463726,-5108,8580,-13472,-95,185,-84
463729,-4932,8408,-13388,-59,60,-78
463732,-5072,8540,-13424,-30,119,-17
463736,-4988,8468,-13460,-50,84,-17
463739,-4924,8572,-13364,-42,75,-37
463743,-4976,8508,-13436,-75,167,-92
463746,-4960,8464,-13428,-72,93,-104
463750,-4940,8436,-13236,-98,209,-97
463753,-5100,8552,-13476,-91,64,-124
463757,-5028,8460,-13364,-85,198,-117
463760,-4960,8564,-13388,-83,93,-110
463764,-5016,8520,-13384,-47,135,-58
463767,-4832,8468,-13416,-86,158,-54
463771,-4920,8604,-13328,-58,78,-41
463774,-5052,8480,-13508,-24,186,-38
463777,-5064,8560,-13332,-99,70,-94
463781,-5012,8548,-13336,-50,138,-90
463784,-5076,8548,-13420,-113,148,-95
463788,-4992,8600,-13488,-76,99,-144
463791,-5076,8492,-13532,-104,190,-112
463795,-4928,8552,-13448,-79,57,-102
463798,-5036,8516,-13508,-50,176,-69
463802,-5072,8480,-13348,-83,48,-57
463805,-5020,8464,-13492,-44,141,-48
463809,-5004,8576,-13540,-88,81,-36
463812,-5016,8416,-13444,-49,117,-67
463816,-5024,8528,-13376,-116,158,-89
463819,-4988,8556,-13320,-64,69,-74
463823,-4944,8484,-13564,-103,180,-104
463826,-4972,8516,-13412,-86,56,-110
463829,-5016,8508,-13296,-67,179,-121
463833,-4992,8580,-13348,-120,74,-118
463836,-5008,8452,-13440,-61,139,-81
463840,-4872,8396,-13416,-109,111,-72
463843,-5104,8500,-13408,-53,88,-77
463847,-4912,8464,-13376,-73,150,-53
463850,-4988,8476,-13496,-62,68,-50
463854,-5000,8496,-13292,-86,191,-65
463857,-4900,8524,-13368,-64,73,-93
463861,-5056,8500,-13280,-75,147,-105
463864,-5120,8600,-13440,-122,121,-111
463868,-4972,8532,-13292,-83,115,-65
463871,-4996,8436,-13384,-114,176,-109
463875,-5060,8532,-13296,-70,53,-90
463878,-4980,8552,-13388,-40,165,-14
463881,-5084,8564,-13324,-46,61,-58
463885,-4976,8620,-13340,-27,163,-50
463888,-5020,8492,-13288,-113,96,-137
463892,-5036,8532,-13464,-76,132,-116
463895,-5032,8604,-13396,-120,155,-127
463899,-5028,8472,-13380,-81,88,-127
463902,-5000,8432,-13368,-107,203,-150
463906,-5080,8464,-13276,-92,73,-72
463909,-5124,8488,-13356,-40,170,-44
463913,-5092,8600,-13376,-75,102,-77
463916,-5056,8528,-13528,-39,106,-29
463920,-4936,8500,-13320,-94,120,-12
463923,-5028,8484,-13468,-58,77,-42
463927,-5028,8592,-13464,-73,185,-52
463930,-4788,8508,-13356,-96,66,-103
463933,-5056,8532,-13468,-62,180,-96
463937,-4904,8464,-13504,-102,87,-118
463940,-5076,8516,-13560,-55,116,-100
463944,-4952,8396,-13324,-120,149,-102
463947,-5028,8372,-13604,-38,67,-57
463951,-4992,8464,-13392,-90,173,-93
463954,-5040,8608,-13404,-57,66,-23
463958,-5028,8512,-13524,-45,174,-76
463961,-4984,8516,-13408,-63,58,-66
463965,-5044,8556,-13508,-56,129,-51
463968,-5028,8516,-13504,-117,120,-107
463972,-5068,8392,-13416,-56,93,-110
463975,-4964,8700,-13444,-117,168,-109
463979,-4976,8532,-13316,-90,74,-95
463982,-5112,8416,-13288,-95,212,-145
463985,-5040,8516,-13468,-76,53,-102
463989,-4972,8528,-13412,-69,151,-98
463992,-5044,8588,-13364,-124,90,-93
463996,-5012,8500,-13384,-33,105,-54
463999,-4968,8496,-13480,-81,199,-90
464003,-4936,8516,-13460,-77,49,-51
464006,-5004,8492,-13412,-82,185,-78
464010,-4928,8492,-13372,-76,65,-115
464013,-5028,8516,-13404,-74,161,-86
464017,-5092,8488,-13376,-123,116,-104
464020,-5052,8472,-13356,-48,117,-90
464024,-4984,8488,-13488,-115,156,-130
464027,-4976,8552,-13364,-82,81,-71
464031,-5004,8484,-13412,-100,194,-99
464034,-5064,8496,-13352,-61,74,-49
464038,-5128,8500,-13428,-36,144,-60
464041,-5000,8472,-13368,-92,99,-91
464045,-4908,8472,-13316,-48,96,-87
464048,-4928,8520,-13272,-105,146,-103
464052,-5056,8556,-13292,-66,67,-85
464055,-5048,8560,-13492,-65,188,-93
464059,-4868,8544,-13332,-74,60,-77
464062,-5076,8556,-13512,-42,171,-101
464066,-4956,8484,-13372,-92,105,-116
464069,-5056,8496,-13404,-48,117,-64
464073,-4984,8444,-13404,-102,136,-85
464076,-5044,8476,-13532,-80,89,-68
464080,-4932,8488,-13356,-80,182,-66
464083,-5008,8588,-13436,-77,76,-83
464086,-5024,8544,-13520,-37,175,-90
464090,-4960,8504,-13368,-75,58,-90
464093,-4912,8536,-13412,-57,131,-90
464096,-4976,8524,-13380,-84,75,-92
464099,-4884,8536,-13396,-44,126,-78
464103,-4964,8520,-13512,-80,122,-103
464106,-4996,8464,-13380,-65,102,-72
464110,-5008,8512,-13356,-128,186,-113
464113,-5024,8448,-13420,-79,58,-92
464117,-4952,8500,-13424,-82,223,-105
464120,-4936,8496,-13420,-87,60,-100
464124,-5120,8640,-13508,-55,161,-52
464127,-4968,8588,-13372,-79,100,-80
464131,-4956,8528,-13356,-53,103,-71
464134,-5024,8560,-13316,-104,150,-89
464138,-4952,8608,-13468,-99,39,-95
464141,-5092,8520,-13572,-80,182,-81
464145,-4920,8592,-13500,-85,105,-118
464148,-5092,8524,-13408,-75,143,-91
464152,-5040,8564,-13440,-124,137,-101
464155,-5088,8492,-13376,-73,54,-104
464159,-4976,8396,-13296,-110,180,-78
464162,-4940,8388,-13348,-69,59,-83
464166,-5016,8480,-13420,-61,162,-46
464169,-4960,8572,-13580,-59,64,-80
464173,-5048,8536,-13324,-30,133,-42
464176,-4972,8548,-13280,-91,125,-94
464179,-5004,8540,-13432,-69,79,-98
464183,-4952,8484,-13408,-114,184,-94
464186,-5120,8540,-13376,-69,67,-85
464190,-4908,8484,-13396,-74,190,-90
464193,-5040,8568,-13476,-90,50,-89
464197,-4992,8488,-13324,-42,171,-68
464200,-4972,8548,-13472,-97,95,-57
464204,-5000,8520,-13404,-49,96,-42
464207,-4988,8528,-13460,-102,156,-66
464211,-4984,8564,-13420,-68,85,-122
464214,-5080,8616,-13516,-118,188,-97
464218,-5048,8544,-13508,-92,81,-105
464221,-4868,8572,-13464,-54,180,-82
464225,-5012,8420,-13452,-82,62,-139
464228,-4964,8528,-13384,-34,150,-82
464231,-5024,8440,-13384,-106,109,-91
464235,-4928,8508,-13280,-58,80,-52
464238,-4964,8608,-13448,-77,196,-72
464242,-4940,8476,-13572,-65,31,-91
464245,-4972,8496,-13412,-60,186,-68
464249,-5028,8544,-13436,-73,67,-113
464252,-5128,8604,-13400,-72,155,-100
464256,-5028,8560,-13356,-107,102,-113
464259,-5020,8396,-13452,-84,93,-61
464263,-4948,8484,-13368,-103,161,-136
464266,-4992,8436,-13400,-55,43,-48
464270,-4892,8492,-13520,-62,181,-47
464273,-5104,8492,-13376,-58,65,-44
464277,-5080,8568,-13324,-26,153,-54
464280,-4968,8604,-13440,-116,81,-76
464283,-5008,8488,-13404,-73,107,-72
464287,-5004,8400,-13464,-128,139,-113
464290,-4952,8568,-13264,-109,89,-103
464294,-4960,8508,-13348,-106,189,-118
464297,-5120,8444,-13436,-91,63,-66
464301,-5016,8400,-13396,-57,156,-43
464304,-5092,8556,-13260,-86,81,-57
464308,-4996,8576,-13404,-57,80,-19
464311,-4952,8468,-13272,-78,150,-2
464315,-5000,8480,-13488,-65,60,-39
464318,-4932,8536,-13400,-8,165,-11
464322,-4988,8492,-13520,-69,77,-57
464325,-5020,8572,-13516,-62,154,-88
464329,-4984,8580,-13384,-142,112,-133
464332,-4940,8524,-13328,-129,109,-165
464335,-4992,8476,-13488,-134,188,-134
464339,-5028,8488,-13416,-125,71,-145
464342,-4920,8508,-13368,-58,194,-65
464346,-5016,8528,-13296,-72,48,-45
464349,-5028,8504,-13348,-20,104,-2
464353,-4984,8520,-13388,-28,106,12
464356,-4916,8616,-13340,-31,57,-25
464360,-4996,8532,-13444,-37,171,-48
464363,-4880,8560,-13380,-81,88,-98
464367,-4924,8568,-13392,-75,183,-126
464370,-5056,8496,-13420,-135,64,-199
464374,-5052,8608,-13444,-102,194,-189
464377,-5112,8412,-13500,-144,150,-146
464381,-5060,8496,-13420,-66,123,-112
464384,-4932,8376,-13324,-105,134,-129
464387,-5008,8364,-13204,-55,77,-91
464391,-5092,8616,-13336,-33,171,6
464394,-5064,8584,-13528,16,44,69
464398,-5084,8616,-13436,33,147,55
464401,-4908,8536,-13384,-55,46,-75
464405,-4928,8484,-13500,-78,173,-144
464408,-4892,8480,-13408,-165,137,-213
464412,-5096,8380,-13448,-164,120,-245
464415,-5092,8524,-13312,-182,193,-249
464419,-5104,8496,-13304,-133,100,-195
464422,-5056,8452,-13276,-63,180,-50
464426,-5112,8544,-13396,-55,60,28
464429,-5108,8552,-13348,62,83,87
464433,-4960,8616,-13428,-29,108,42
464436,-4976,8508,-13384,13,61,13
464439,-4876,8512,-13252,-79,178,-92
464443,-4964,8672,-13416,-124,74,-174
464446,-4980,8524,-13592,-138,220,-190
464450,-5032,8460,-13492,-191,107,-235
464453,-5012,8564,-13460,-120,168,-181
464457,-4992,8516,-13148,-129,142,-134
464460,-5016,8532,-13588,-56,52,-52
464464,-5004,8524,-13360,-42,158,-28
464467,-4944,8528,-13312,-6,57,4
464471,-5032,8600,-13440,12,157,41
464474,-4992,8588,-13560,-76,71,-19
464478,-4912,8540,-13456,-58,134,-87
464481,-5016,8640,-13696,-138,145,-138
464485,-5020,8532,-13348,-106,99,-169
464488,-4964,8540,-13376,-144,192,-162
464491,-5000,8488,-13508,-122,84,-132
464495,-5040,8396,-13368,-41,189,-27
464498,-5040,8468,-13308,-64,58,-69
464502,-5120,8500,-13420,-18,120,24
464505,-5012,8616,-13376,-64,103,-32
464509,-4972,8544,-13404,-9,66,-14
464513,-4872,8532,-13368,-87,178,-58
464516,-4996,8524,-13432,-78,64,-99
464520,-4932,8572,-13400,-107,209,-131
464523,-5040,8448,-13476,-128,74,-150
464527,-4992,8508,-13380,-70,154,-110
464530,-4928,8592,-13452,-92,107,-78
464533,-4932,8504,-13308,-68,66,-84
464537,-5040,8552,-13452,-79,162,-49
464540,-5076,8496,-13412,-50,83,-67
464544,-4976,8552,-13484,-71,167,-47
464547,-4960,8488,-13416,-99,62,-92
464551,-5048,8540,-13584,-49,184,-96
464554,-5052,8500,-13444,-137,87,-138
464558,-4936,8500,-13512,-68,125,-131
464561,-4956,8408,-13488,-131,131,-139
464565,-5056,8440,-13376,-79,68,-83
464568,-4976,8488,-13408,-82,169,-72
464572,-5028,8440,-13292,-66,66,-74
464575,-5028,8544,-13348,-42,171,-54
464579,-4952,8464,-13412,-66,49,-56
464582,-4988,8444,-13384,-41,116,-35
464585,-4952,8464,-13332,-107,133,-38
464589,-5112,8496,-13356,-44,105,-89
464592,-5000,8476,-13312,-101,172,-102
464596,-5032,8496,-13464,-92,90,-114
464599,-5040,8440,-13476,-72,182,-109
464603,-5048,8532,-13520,-129,75,-153
464606,-4988,8500,-13360,-93,162,-121
464610,-5164,8508,-13476,-118,68,-95
464613,-5040,8468,-13372,-47,124,-59
464617,-5036,8452,-13388,-78,128,-25
464620,-5028,8476,-13396,-33,55,21
464624,-5000,8488,-13444,-44,187,17
464627,-4936,8460,-13344,-37,49,-20
464631,-5036,8476,-13280,-59,192,-64
464634,-4924,8612,-13424,-102,32,-101
464637,-4868,8564,-13412,-61,166,-144
464641,-4868,8488,-13512,-145,139,-149
464644,-5032,8548,-13352,-92,93,-115
464648,-4980,8492,-13168,-117,184,-75
464651,-5044,8528,-13380,-69,57,-101
464655,-5100,8572,-13376,-59,172,-33
464658,-4912,8548,-13264,-44,47,-41
464662,-5024,8572,-13336,9,172,-11
464665,-5012,8536,-13388,-69,57,-22
464669,-5012,8540,-13444,-41,89,-33
464672,-5000,8428,-13348,-87,155,-69
464676,-5016,8604,-13452,-70,87,-101
464679,-4968,8568,-13448,-83,214,-103
464683,-4964,8440,-13400,-110,87,-143
464686,-5028,8552,-13340,-77,171,-133
464689,-5008,8516,-13396,-117,113,-103
464693,-4980,8456,-13520,-38,115,-100
464696,-4956,8460,-13496,-85,140,-65
464700,-5004,8572,-13424,-20,60,-16
464703,-4980,8528,-13436,-15,165,-26
464707,-4856,8664,-13384,-76,53,-41
464710,-4932,8564,-13464,-14,122,-70
464714,-4964,8500,-13464,-121,158,-121
464717,-4988,8600,-13488,-109,83,-117
464721,-4888,8600,-13552,-117,194,-188
464724,-4984,8544,-13404,-107,68,-173
464728,-5000,8504,-13424,-86,191,-100
464731,-4988,8476,-13468,-91,93,-105
464735,-5024,8508,-13340,-42,84,-6
464738,-4992,8516,-13344,-98,150,-87
464741,-5072,8544,-13308,-93,51,-66
464745,-5048,8468,-13336,-73,190,-113
464748,-5088,8496,-13440,-104,54,-99
464752,-4972,8532,-13220,-77,153,-79
464755,-5040,8472,-13504,-126,107,-130
464759,-5052,8476,-13360,-75,77,-86
464763,-4952,8432,-13388,-99,164,-83
464766,-5016,8468,-13336,-73,37,-66
464770,-5004,8512,-13428,-48,155,-64
464773,-5036,8536,-13332,-86,72,-88
464777,-5036,8588,-13400,-61,120,-44
464780,-4920,8580,-13304,-106,102,-87
464784,-5064,8496,-13312,-75,101,-96
464787,-4932,8516,-13472,-135,181,-116
464790,-4924,8504,-13436,-83,62,-98
464794,-5096,8452,-13392,-75,190,-73
464797,-5068,8456,-13432,-84,53,-90
464801,-5036,8540,-13232,-31,146,-29
464804,-5068,8540,-13344,-95,112,-27
464808,-4956,8548,-13440,-19,90,-54
464811,-4988,8512,-13352,-112,160,-77
464815,-5008,8512,-13452,-57,60,-63
464818,-5072,8548,-13432,-79,188,-94
464822,-4936,8548,-13432,-65,73,-82
464825,-4932,8560,-13444,-55,164,-78
464829,-4992,8524,-13368,-66,94,-95
464832,-4976,8572,-13432,-66,112,-90
464836,-5040,8536,-13496,-83,176,-54
464839,-4864,8564,-13392,-35,106,-51
464842,-5000,8536,-13392,-63,180,-50
464846,-4968,8560,-13488,-65,66,-41
464849,-4988,8552,-13364,-40,172,-76
464853,-4956,8472,-13524,-100,98,-99
464856,-5056,8472,-13444,-70,126,-112
464860,-4952,8492,-13452,-143,156,-153
464863,-4936,8516,-13476,-110,81,-119
464867,-4916,8504,-13464,-115,176,-121
464870,-4948,8480,-13604,-93,62,-99
464874,-4912,8452,-13644,-47,164,-32
464877,-4996,8472,-13316,-41,45,-36
464881,-4988,8440,-13456,-30,109,-37
464884,-4996,8476,-13324,-90,123,-67
464888,-5084,8564,-13472,-82,57,-100
464891,-5020,8520,-13300,-123,174,-121
464894,-4940,8452,-13352,-130,87,-146
464898,-4948,8556,-13444,-98,163,-136
464901,-5048,8548,-13252,-128,93,-172
464904,-5020,8536,-13284,-85,180,-123
464907,-5080,8424,-13292,-127,91,-122
464911,-5084,8452,-13380,-43,99,-35
464914,-5052,8512,-13300,-82,92,-34
464918,-5016,8492,-13268,-11,85,-2
464921,-5044,8520,-13488,-76,133,-10
464925,-5056,8548,-13296,-30,56,-23
464928,-5048,8532,-13376,-63,187,-64
464932,-4980,8492,-13372,-107,52,-131
464935,-5044,8580,-13444,-90,163,-100
464939,-5004,8600,-13336,-134,140,-171
464942,-4960,8460,-13372,-72,135,-121
464945,-5108,8552,-13332,-114,154,-88
464949,-5000,8572,-13464,-44,62,-67
464952,-4944,8460,-13224,-44,187,-28
464956,-4948,8572,-13456,-57,45,-35
464959,-4952,8564,-13312,-14,171,-2
464963,-5012,8476,-13528,-76,65,-71
464966,-5028,8556,-13412,-39,131,-24
464970,-4968,8556,-13496,-101,110,-112
464973,-4940,8508,-13292,-54,85,-82
464977,-4984,8568,-13380,-106,188,-105
464980,-5036,8536,-13492,-104,85,-106
464984,-5008,8532,-13388,-76,182,-111
464987,-5080,8460,-13412,-71,79,-94
464990,-5000,8540,-13368,-54,125,-56
464994,-5028,8436,-13532,-64,117,-63
464997,-4780,8468,-13452,-59,87,-48
465001,-4980,8464,-13368,-72,163,-42
465004,-5052,8524,-13572,-46,62,-78
465008,-5052,8436,-13424,-62,195,-79
465011,-4912,8492,-13528,-98,52,-108
465015,-5040,8484,-13388,-70,115,-108
465018,-4980,8536,-13228,-122,121,-91
465022,-5060,8472,-13604,-61,80,-126
465025,-5024,8420,-13476,-113,176,-112
465029,-5020,8416,-13544,-58,47,-51
465032,-4960,8488,-13416,-44,169,-67
465036,-5016,8508,-13504,-90,47,-79
465039,-5032,8504,-13448,-45,150,-43
465042,-4944,8552,-13488,-80,81,-59
465046,-5032,8560,-13508,-63,109,-68
465049,-4948,8616,-13420,-94,145,-99
465053,-5092,8512,-13464,-76,71,-96
465056,-4960,8572,-13484,-99,159,-84
465060,-5048,8588,-13392,-88,68,-111
465063,-5060,8496,-13368,-67,193,-68
465067,-4940,8568,-13344,-95,78,-102
465070,-5004,8544,-13408,-43,114,-61
465074,-5072,8568,-13224,-90,132,-108
465077,-4968,8484,-13400,-59,77,-66
465081,-5068,8420,-13500,-82,205,-95
465084,-4964,8508,-13352,-88,84,-107
465088,-5000,8520,-13344,-44,180,-76
465091,-4940,8468,-13388,-105,95,-111
465094,-4956,8544,-13328,-61,121,-92
465098,-5064,8516,-13432,-121,152,-108
465101,-4952,8560,-13356,-76,84,-76
465105,-4984,8516,-13328,-85,173,-72
465108,-5084,8604,-13300,-83,78,-69
465112,-4900,8504,-13440,-38,166,-82
465115,-5016,8544,-13632,-96,84,-82
465119,-5052,8496,-13544,-17,137,-58
465122,-5060,8508,-13544,-97,140,-84
465126,-4980,8556,-13316,-78,80,-78
465129,-4964,8584,-13556,-73,155,-107
465133,-4988,8468,-13452,-84,57,-98
465136,-5028,8552,-13388,-42,180,-109
465140,-4856,8484,-13428,-105,72,-85
465143,-5016,8560,-13452,-27,101,-84
465146,-5004,8440,-13472,-95,157,-87
465150,-4964,8456,-13428,-67,71,-89
465153,-4976,8584,-13348,-85,199,-56
465157,-5076,8576,-13364,-80,43,-92
465160,-5128,8536,-13412,-28,118,-72
465164,-4968,8536,-13404,-116,125,-100
465167,-4964,8560,-13320,-73,83,-78
465171,-5016,8524,-13432,-111,187,-76
465174,-5008,8492,-13352,-71,61,-97
465178,-5036,8488,-13376,-77,187,-97
465181,-4968,8504,-13420,-72,63,-104
465185,-5088,8532,-13432,-43,161,-89
465188,-4964,8452,-13472,-106,64,-57
465192,-4940,8484,-13536,-55,136,-102
465195,-4996,8496,-13492,-119,139,-55
465198,-4944,8520,-13416,-42,98,-99
465202,-4928,8536,-13488,-121,167,-57
465205,-5108,8528,-13404,-90,63,-78
465209,-5116,8540,-13260,-64,200,-40
465213,-4980,8556,-13312,-107,98,-90
465216,-4976,8484,-13436,-43,124,-77
465220,-5064,8536,-13400,-92,148,-90
465223,-4976,8520,-13424,-55,50,-58
465227,-5112,8544,-13332,-94,192,-99
465230,-5008,8512,-13480,-90,61,-85
465234,-4876,8532,-13648,-79,158,-101
465237,-4996,8608,-13444,-83,72,-99
465241,-4924,8492,-13388,-71,112,-72
465244,-5060,8468,-13448,-83,182,-90
465247,-5068,8448,-13420,-67,75,-79
465251,-4980,8452,-13576,-76,181,-54
465254,-4912,8624,-13304,-81,52,-86
465258,-4972,8444,-13476,-49,166,-54
465261,-4980,8516,-13496,-95,88,-100
465265,-5092,8424,-13308,-66,100,-82
465268,-4996,8468,-13508,-112,142,-93
465272,-4980,8536,-13404,-70,86,-67
465275,-4996,8564,-13464,-71,188,-71
465279,-4944,8556,-13404,-88,54,-65
465282,-5016,8608,-13380,-43,186,-78
465286,-4932,8464,-13528,-103,78,-97
465289,-5064,8540,-13364,-50,141,-103
465293,-4976,8556,-13468,-129,106,-128
465296,-4940,8524,-13324,-76,126,-140
465299,-4936,8468,-13328,-123,171,-148
465303,-5112,8520,-13368,-86,90,-80
465306,-5044,8480,-13452,-67,192,-51
465310,-4956,8508,-13480,-81,27,-37
465313,-5100,8496,-13336,-32,167,-22
465317,-4924,8552,-13472,-80,86,-26
465320,-4936,8464,-13344,-38,97,-83
465324,-4972,8548,-13444,-109,164,-100
465327,-4824,8440,-13424,-91,80,-89
465331,-4960,8524,-13432,-83,199,-121
465334,-4988,8520,-13364,-117,69,-113
465338,-5104,8492,-13352,-89,196,-119
465341,-4968,8472,-13328,-121,88,-90
465345,-5032,8492,-13364,-61,115,-42
465348,-5100,8460,-13464,-99,129,-62
465351,-5172,8520,-13408,-49,90,-3
465355,-4976,8572,-13440,-73,176,-45
465358,-5040,8528,-13516,-54,60,-27
465362,-4992,8456,-13412,-37,167,-36
465365,-5000,8528,-13396,-102,89,-60
465369,-4992,8468,-13416,-78,103,-68
465372,-4992,8456,-13596,-103,166,-98
465376,-5040,8572,-13324,-85,65,-118
465379,-4984,8480,-13388,-84,210,-82
465383,-5032,8596,-13528,-104,68,-113
465386,-4988,8592,-13504,-31,160,-53
465390,-5068,8616,-13344,-80,110,-91
465393,-5048,8456,-13364,-43,97,-38
465397,-5020,8592,-13368,-81,165,-60
465400,-5008,8652,-13412,-57,87,-58
465403,-4948,8556,-13488,-79,182,-82
465407,-4896,8500,-13464,-96,52,-87
465410,-5016,8496,-13416,-68,173,-108
465414,-4996,8456,-13324,-108,76,-103
465417,-4968,8452,-13408,-57,128,-117
465421,-5000,8572,-13336,-135,144,-138
465424,-4972,8528,-13444,-98,88,-91
465428,-5000,8480,-13488,-96,193,-62
465431,-5016,8476,-13496,-76,53,-63
465435,-5044,8568,-13480,-73,186,-62
465438,-5068,8572,-13396,-73,74,-77
465442,-4900,8564,-13376,-57,108,-92
465445,-5012,8564,-13416,-123,145,-83
465449,-5008,8520,-13380,-81,94,-114
465452,-5040,8616,-13428,-100,169,-101
465455,-5088,8528,-13344,-83,75,-128
465459,-4996,8480,-13344,-48,149,-83
465463,-4976,8544,-13460,-85,129,-92
465466,-4952,8464,-13464,-60,71,-67
465470,-4928,8420,-13352,-95,176,-51
465473,-5096,8476,-13448,-73,45,-80
465477,-5060,8536,-13464,-49,168,-73
465480,-4972,8536,-13392,-77,57,-76
465484,-4968,8472,-13412,-46,164,-61
465487,-4928,8584,-13432,-90,80,-80
465491,-5028,8484,-13384,-58,123,-75
465494,-5016,8488,-13332,-110,105,-90
465497,-4960,8532,-13348,-71,100,-85
465501,-5108,8468,-13404,-66,195,-69
465504,-5044,8552,-13324,-73,72,-92
465508,-5088,8524,-13356,-44,162,-38
465511,-4996,8460,-13180,-90,113,-78
465515,-4896,8548,-13564,-20,129,-52
465518,-4996,8548,-13336,-78,143,-94
465522,-5016,8488,-13444,-55,95,-73
465525,-4956,8524,-13408,-61,181,-53
465529,-5016,8536,-13312,-80,79,-77
465532,-4920,8564,-13344,-53,193,-81
465536,-4996,8576,-13380,-83,69,-78
465539,-4976,8564,-13472,-57,105,-77
465543,-4948,8408,-13384,-104,156,-67
465546,-4908,8520,-13364,-75,72,-81
465549,-5024,8448,-13496,-70,149,-57
465553,-4944,8436,-13280,-89,76,-92
465556,-4976,8452,-13548,-54,121,-89
465560,-4928,8548,-13564,-110,159,-81
465563,-5028,8480,-13428,-66,71,-76
465567,-4988,8504,-13400,-57,196,-93
465570,-5092,8496,-13356,-73,79,-55
465574,-4932,8496,-13220,-56,163,-48
465577,-4992,8440,-13412,-99,117,-95
465581,-5008,8588,-13392,-68,100,-93
465584,-5076,8420,-13424,-107,170,-96
465588,-5044,8500,-13424,-85,81,-71
465591,-4952,8476,-13312,-69,179,-67
465595,-4976,8556,-13360,-71,72,-72
465598,-4940,8584,-13312,-53,166,-48
465601,-4980,8632,-13464,-94,64,-83
465605,-5108,8516,-13492,-49,114,-64
465608,-4968,8560,-13468,-123,120,-92
465612,-4984,8564,-13396,-66,94,-85
465615,-4984,8460,-13380,-77,203,-79
465619,-4960,8524,-13528,-90,92,-90
465622,-4988,8520,-13248,-64,153,-51
465626,-4860,8416,-13444,-90,79,-88
465629,-4980,8528,-13420,-55,102,-62
465633,-4932,8528,-13484,-109,145,-104
465636,-5048,8560,-13352,-77,83,-52
465640,-4972,8488,-13364,-99,191,-73
465643,-5004,8576,-13304,-79,81,-78
465647,-4980,8460,-13536,-50,165,-57
465650,-5060,8640,-13464,-85,58,-87
465653,-5028,8448,-13388,-60,118,-69
465657,-5044,8516,-13420,-116,85,-108
465660,-4968,8556,-13276,-73,115,-84
465663,-4944,8440,-13468,-99,109,-98
465666,-5084,8540,-13360,-53,85,-68
465670,-4952,8572,-13420,-90,127,-94
465673,-5024,8412,-13352,-90,75,-61
465677,-4952,8468,-13332,-80,171,-59
465680,-5044,8508,-13512,-98,82,-67
465684,-4960,8528,-13392,-56,144,-96
465688,-5156,8468,-13456,-96,120,-73
465691,-5000,8520,-13372,-84,82,-79
465695,-4952,8440,-13540,-76,153,-101
465698,-4948,8460,-13364,-102,77,-71
465701,-5052,8540,-13436,-66,171,-105
465705,-5048,8500,-13348,-87,69,-69
465708,-4968,8552,-13568,-26,147,-51
465712,-5064,8460,-13472,-98,92,-81
465715,-4908,8524,-13376,-38,102,-53
465719,-4936,8564,-13412,-107,154,-50
465722,-4984,8544,-13248,-60,71,-55
465726,-5024,8408,-13296,-71,176,-44
465729,-5004,8548,-13320,-103,60,-91
465733,-4956,8508,-13348,-41,181,-60
465736,-5000,8552,-13456,-117,70,-97
465740,-4992,8516,-13268,-46,121,-82
465743,-4984,8548,-13432,-103,149,-95
465747,-5028,8520,-13524,-54,92,-90
465750,-4976,8520,-13440,-73,214,-83
465753,-5084,8556,-13380,-96,54,-101
465757,-5020,8540,-13428,-51,184,-66
465760,-5028,8536,-13448,-94,85,-122
465764,-4980,8508,-13684,-53,110,-58
465767,-4952,8508,-13504,-107,143,-88
465771,-4956,8488,-13392,-75,57,-105
465774,-5000,8568,-13492,-85,194,-121
465778,-5084,8528,-13488,-86,73,-94
465781,-5028,8492,-13404,-53,168,-95
465785,-4936,8544,-13420,-134,88,-93
465788,-5040,8528,-13464,-58,123,-85
465792,-4996,8496,-13440,-114,149,-95
465795,-5116,8404,-13424,-80,50,-67
465799,-5008,8556,-13376,-67,168,-71
465802,-5096,8520,-13624,-93,65,-68
465805,-4924,8476,-13376,-50,126,-26
465809,-4976,8476,-13356,-109,108,-57
465812,-5020,8536,-13392,-53,82,-93
465816,-4988,8492,-13424,-108,176,-72
465819,-4936,8652,-13392,-82,64,-111
465823,-4936,8588,-13500,-68,198,-90
465826,-5064,8524,-13416,-96,63,-84
465830,-5100,8488,-13312,-72,136,-111
465833,-4996,8560,-13492,-122,101,-79
465837,-4960,8484,-13372,-63,61,-66
465840,-4968,8536,-13444,-76,195,-52
465844,-4952,8524,-13312,-90,57,-93
465847,-4992,8604,-13264,-67,166,-20
465851,-5004,8464,-13464,-89,95,-104
465854,-5020,8452,-13552,-51,106,-86
465857,-4984,8448,-13488,-111,137,-110
465861,-4908,8516,-13312,-76,104,-87
465864,-4980,8468,-13336,-61,196,-93
465868,-4932,8544,-13320,-87,45,-96
465871,-5052,8488,-13388,-47,158,-54
465875,-5044,8508,-13312,-90,109,-89
465878,-5020,8452,-13444,-59,87,-77
465882,-4980,8444,-13412,-78,179,-65
465885,-5020,8516,-13328,-71,85,-89
465889,-5052,8508,-13376,-53,165,-73
465892,-5016,8528,-13368,-93,81,-107
465896,-5060,8432,-13272,-51,140,-70
465899,-5052,8496,-13408,-127,176,-103
465903,-4996,8564,-13392,-71,80,-115
465906,-5072,8504,-13420,-92,199,-85
465909,-4984,8480,-13312,-82,38,-80
465913,-4900,8572,-13432,-69,187,-52
465916,-4964,8572,-13568,-59,54,-66
465920,-4948,8552,-13444,-61,151,-61
465923,-5020,8628,-13344,-101,105,-83
465927,-5048,8488,-13512,-33,109,-87
465930,-4928,8472,-13448,-109,173,-81
465934,-5012,8448,-13360,-87,67,-81
465938,-5052,8532,-13316,-47,186,-99
465941,-5056,8580,-13288,-117,95,-108
465945,-5044,8564,-13332,-27,123,-69
465948,-4968,8452,-13472,-129,132,-111
465951,-5036,8560,-13488,-61,84,-51
465955,-4988,8496,-13504,-93,191,-123
465958,-4936,8604,-13444,-67,58,-80
465962,-4944,8472,-13616,-70,211,-68
465965,-5044,8464,-13336,-72,57,-71
465969,-4944,8548,-13392,-50,164,-58
465972,-5124,8500,-13480,-102,96,-88
465976,-5044,8504,-13428,-63,110,-101
465979,-4988,8524,-13312,-113,159,-80
465983,-4992,8504,-13320,-64,66,-99
465986,-5108,8472,-13452,-89,186,-76
465990,-4916,8528,-13592,-59,37,-91
465993,-4992,8552,-13384,-43,182,-75
465997,-4916,8420,-13472,-99,60,-75
466000,-4904,8464,-13472,-43,126,-81
466003,-5028,8492,-13584,-116,118,-94
466007,-4996,8484,-13384,-73,83,-102
466010,-5040,8524,-13344,-87,197,-75
466014,-4948,8496,-13308,-80,47,-108
466017,-4940,8548,-13628,-59,190,-71
466021,-5016,8464,-13380,-76,61,-77
466024,-5008,8500,-13336,-82,111,-79
466028,-4976,8504,-13428,-100,108,-78
466031,-5056,8552,-13308,-70,95,-84
466035,-5008,8480,-13396,-95,190,-74
466038,-4956,8600,-13496,-80,53,-90
466042,-5000,8476,-13436,-56,202,-42
466045,-5012,8492,-13352,-79,40,-91
466049,-5004,8552,-13400,-36,139,-65
466052,-5016,8508,-13224,-125,137,-88
466055,-4920,8544,-13376,-78,72,-107
466059,-5032,8564,-13400,-87,183,-95
466063,-4960,8492,-13416,-73,68,-97
466066,-5012,8452,-13340,-46,148,-86
466070,-5004,8532,-13420,-106,121,-84
466073,-5016,8536,-13444,-63,109,-76
466077,-5032,8464,-13344,-75,177,-78
466080,-5008,8512,-13336,-80,69,-101
466084,-4892,8500,-13340,-66,177,-30
466088,-5000,8528,-13428,-100,74,-78
466091,-4976,8648,-13520,-51,144,-69
466095,-4932,8588,-13412,-104,125,-99
466098,-4968,8552,-13464,-55,72,-59
466101,-5064,8592,-13428,-103,209,-106
466105,-5036,8408,-13500,-73,68,-95
466108,-4980,8488,-13436,-56,194,-104
466111,-4968,8452,-13376,-82,58,-93
466114,-5088,8436,-13380,-72,192,-71
466118,-4880,8596,-13508,-60,51,-75
466121,-5028,8520,-13400,-53,151,-94
466125,-5052,8420,-13476,-90,87,-95
466128,-5136,8472,-13424,-45,91,-70
466132,-4932,8480,-13408,-134,160,-75
466135,-5008,8508,-13356,-71,55,-67
466139,-5140,8548,-13436,-81,190,-83
466142,-5048,8508,-13400,-83,91,-95
466145,-5024,8556,-13496,-58,176,-85
466149,-5028,8516,-13488,-67,75,-84
466152,-4948,8468,-13280,-58,123,-88
466156,-5024,8492,-13408,-96,158,-97
466159,-5056,8452,-13488,-76,95,-94
466163,-4984,8576,-13300,-66,197,-74
466166,-5004,8576,-13464,-90,69,-90
466170,-4948,8532,-13320,-62,168,-67
466173,-5076,8440,-13260,-110,79,-97
466177,-4976,8532,-13432,-50,127,-83
466180,-5016,8536,-13320,-102,137,-64
466184,-5072,8660,-13500,-62,91,-89
466187,-5068,8568,-13404,-55,204,-72
466191,-5136,8480,-13400,-88,58,-83
466194,-5036,8516,-13412,-46,152,-62
466198,-4996,8424,-13336,-99,105,-101
466201,-5120,8588,-13448,-63,103,-78
466205,-4920,8564,-13472,-80,163,-72
466208,-4956,8600,-13380,-83,58,-88
466212,-4984,8504,-13388,-86,196,-64
466215,-5076,8508,-13400,-93,61,-108
466219,-5012,8460,-13356,-29,153,-70
466222,-5020,8520,-13424,-98,83,-91
466225,-5016,8532,-13400,-68,112,-59
466229,-5004,8512,-13404,-118,161,-99
466232,-4988,8496,-13476,-58,59,-44
466236,-5024,8424,-13384,-104,191,-79
466239,-5008,8560,-13604,-112,69,-88
466243,-4996,8492,-13424,-47,140,-61
466246,-4992,8440,-13332,-123,119,-91
466250,-5100,8532,-13388,-69,92,-101
466253,-4996,8540,-13428,-94,173,-81
466257,-4948,8560,-13360,-62,76,-94
466260,-4972,8460,-13524,-72,181,-87
466264,-5016,8436,-13492,-76,53,-74
466267,-4956,8480,-13388,-27,141,-75
466271,-5048,8552,-13372,-107,110,-77
466274,-5040,8532,-13524,-62,89,-102
466277,-5028,8500,-13316,-95,200,-108
466281,-4948,8480,-13352,-86,68,-77
466284,-5044,8496,-13340,-68,178,-71
466288,-5068,8528,-13464,-97,61,-83
466291,-5052,8516,-13320,-25,158,-35
466295,-4956,8548,-13508,-97,91,-103
466298,-5084,8524,-13540,-54,89,-67
466302,-4956,8524,-13404,-105,183,-93
466305,-5016,8440,-13336,-72,88,-79
466309,-5072,8480,-13484,-82,216,-65
466313,-5024,8576,-13372,-68,38,-77
466316,-5080,8460,-13492,-41,156,-73
466320,-4956,8500,-13424,-104,115,-81
466323,-4968,8460,-13364,-57,99,-87
466326,-5004,8592,-13376,-92,183,-69
466330,-4936,8496,-13388,-81,57,-83
466333,-4988,8492,-13256,-55,190,-63
466337,-5096,8496,-13492,-102,54,-71
466340,-4988,8552,-13276,-48,176,-79
466344,-4968,8624,-13400,-105,119,-86
466347,-5040,8588,-13336,-64,86,-93
466351,-5008,8464,-13572,-97,158,-87
466354,-4968,8532,-13336,-68,43,-89
466358,-4996,8424,-13392,-72,176,-67
466361,-5004,8536,-13360,-79,73,-75
466365,-5052,8512,-13432,-37,115,-76
466368,-5096,8544,-13368,-77,127,-108
466372,-5040,8472,-13324,-53,98,-70
466375,-4960,8548,-13336,-98,148,-73
466378,-4928,8532,-13444,-65,82,-105
466382,-5040,8456,-13556,-71,191,-66
466385,-5020,8516,-13388,-77,63,-96
466389,-4928,8524,-13468,-70,179,-71
466392,-5040,8556,-13344,-91,74,-83
466396,-5036,8540,-13300,-82,117,-49
466399,-5076,8532,-13268,-119,116,-113
466403,-5048,8476,-13332,-78,124,-47
466406,-5080,8496,-13452,-86,155,-76
466410,-4984,8592,-13300,-88,35,-76
466413,-5084,8488,-13644,-38,200,-54
466417,-4972,8516,-13400,-84,64,-78
466420,-5004,8596,-13424,-47,109,-66
466423,-4984,8452,-13488,-96,110,-72
466427,-4996,8492,-13288,-83,75,-77
466430,-4952,8420,-13380,-75,195,-97
466434,-4972,8516,-13424,-84,77,-57
466437,-5088,8592,-13408,-53,187,-83
466441,-4992,8528,-13492,-74,57,-102
466444,-5072,8504,-13472,-53,122,-86
466448,-5020,8612,-13500,-97,114,-103
466451,-4912,8568,-13500,-62,120,-87
466455,-4972,8528,-13384,-113,185,-85
466458,-5016,8516,-13408,-83,79,-104
466462,-4936,8504,-13464,-93,186,-97
466465,-4944,8596,-13344,-79,62,-110
466469,-4936,8456,-13452,-62,183,-66
466472,-4960,8508,-13364,-99,96,-132
466475,-5012,8576,-13512,-45,124,-94
466479,-5044,8356,-13436,-115,158,-115
466482,-4940,8468,-13464,-58,60,-73
466486,-4992,8520,-13392,-72,188,-91
466489,-5016,8536,-13548,-85,98,-119
466493,-5012,8572,-13492,-75,184,-66
466496,-5000,8540,-13368,-109,68,-116
466500,-5084,8488,-13464,-51,145,-100
466503,-5024,8576,-13500,-105,148,-91
466507,-5068,8564,-13392,-55,80,-94
466510,-5000,8468,-13392,-123,216,-68
466514,-5032,8440,-13388,-75,52,-72
466517,-5064,8448,-13324,-65,184,-58
466521,-5024,8508,-13376,-85,56,-131
466524,-5020,8472,-13456,-60,110,-68
466527,-4892,8388,-13344,-118,137,-96
466531,-4932,8520,-13432,-72,80,-73
466534,-5076,8516,-13404,-85,194,-104
466538,-4996,8548,-13460,-98,54,-86
466541,-4956,8524,-13324,-72,137,-74
466545,-5052,8496,-13388,-92,53,-82
466548,-5084,8496,-13376,-47,142,-47
466552,-5044,8472,-13520,-76,127,-77
466555,-5132,8564,-13448,-86,104,-61
466559,-5028,8532,-13348,-74,135,-71
466563,-5012,8504,-13440,-99,59,-65
466566,-5044,8524,-13368,-74,191,-69
466570,-4996,8448,-13316,-87,68,-67
466573,-4984,8540,-13184,-42,121,-65
466576,-5104,8548,-13472,-87,125,-60
466580,-4980,8548,-13480,-72,74,-70
466583,-4956,8468,-13208,-65,194,-52
466587,-4968,8516,-13336,-61,24,-63
466590,-4924,8552,-13120,-34,197,-33
466594,-5040,8528,-13368,-75,54,-76
466597,-5032,8484,-13324,-34,144,-41
466601,-4980,8508,-13372,-115,121,-87
466604,-4980,8532,-13432,-46,132,-78
466608,-5060,8456,-13452,-90,172,-75
466611,-4900,8572,-13428,-58,71,-70
466615,-4952,8452,-13396,-57,223,-92
466618,-5000,8548,-13528,-84,80,-90
466622,-5028,8508,-13436,-33,172,-71
466625,-5024,8592,-13484,-86,100,-101
466628,-4952,8512,-13356,-65,100,-109
466632,-5044,8556,-13540,-126,188,-92
466635,-4996,8492,-13404,-88,64,-138
466639,-4872,8384,-13360,-95,205,-51
466642,-4932,8556,-13436,-70,54,-91
466646,-5004,8428,-13388,-32,153,-38
466649,-4992,8416,-13480,-74,61,-78
466653,-4968,8456,-13396,-53,94,-71
466656,-4952,8560,-13252,-104,159,-114
466660,-4956,8520,-13424,-69,57,-117
466663,-4996,8544,-13492,-90,202,-127
466667,-4924,8524,-13464,-108,65,-136
466670,-5008,8472,-13456,-76,191,-111
466674,-4964,8440,-13504,-105,64,-97
466677,-5024,8572,-13340,-64,117,-94
466680,-5056,8504,-13352,-89,141,-99
466684,-5092,8588,-13400,-54,82,-91
466687,-5016,8532,-13416,-113,158,-119
466690,-4900,8596,-13344,-56,72,-89
466693,-4992,8444,-13400,-128,176,-87
466697,-5008,8548,-13468,-106,56,-93
466700,-4864,8504,-13512,-75,216,-92
466704,-4952,8512,-13340,-94,77,-112
466707,-5060,8504,-13348,-71,151,-69
466711,-5032,8480,-13468,-99,88,-76
466714,-5132,8516,-13324,-19,118,-61
466718,-4968,8500,-13268,-79,132,-64
466721,-5012,8516,-13268,-72,78,-74
466724,-4984,8572,-13336,-90,204,-58
466728,-5004,8548,-13440,-50,44,-67
466731,-4956,8552,-13296,-32,194,-71
466735,-5000,8556,-13400,-112,65,-83
466738,-4948,8604,-13236,-46,127,-96
466742,-4992,8528,-13340,-101,126,-124
466745,-4872,8500,-13488,-64,107,-99
466749,-5068,8536,-13540,-91,187,-30
466752,-5052,8560,-13448,-51,53,-42
466756,-4980,8404,-13548,-33,185,-52
466759,-4992,8452,-13388,-60,56,-41
466763,-5028,8468,-13392,-38,133,-50
466766,-5028,8536,-13372,-91,120,-50
466770,-4996,8596,-13468,-58,117,-99
466773,-4956,8552,-13512,-71,191,-106
466776,-4964,8520,-13328,-96,41,-118
466780,-5028,8492,-13396,-81,183,-91
466783,-4904,8496,-13412,-85,71,-124
466787,-4840,8416,-13452,-66,139,-75
466790,-5036,8464,-13432,-92,128,-89
466794,-5072,8580,-13496,-47,96,-48
466797,-5040,8540,-13412,-79,169,-65
466801,-4980,8584,-13460,-59,59,-87
466804,-5044,8528,-13456,-42,183,-71
466808,-4900,8484,-13512,-90,88,-84
466811,-4964,8512,-13492,-51,102,-72
466815,-5028,8488,-13280,-122,170,-113
466818,-4972,8552,-13536,-77,81,-108
466822,-4968,8540,-13272,-93,196,-95
466825,-5012,8504,-13312,-86,60,-113
466828,-4964,8452,-13372,-81,177,-126
466832,-4988,8464,-13428,-96,105,-107
466835,-5028,8488,-13436,-37,142,-85
466839,-5072,8432,-13440,-103,133,-97
466842,-4996,8500,-13304,-70,55,-109
466846,-4952,8488,-13388,-77,200,-102
466849,-4948,8476,-13400,-72,66,-84
466853,-4924,8476,-13288,-63,198,-80
466856,-4932,8496,-13584,-81,70,-103
466860,-5068,8452,-13416,-53,135,-87
466863,-4916,8520,-13332,-108,115,-118
466867,-5112,8504,-13216,-68,96,-84
466870,-5048,8468,-13284,-111,169,-87
466874,-4936,8612,-13388,-85,59,-78
466877,-4976,8524,-13344,-64,203,-73
466880,-4952,8560,-13376,-60,24,-100
466884,-5008,8536,-13376,-58,145,-58
466887,-5048,8532,-13264,-85,80,-106
466891,-5044,8464,-13544,-63,136,-85
466894,-5060,8576,-13368,-108,154,-95
466898,-4944,8492,-13536,-58,76,-81
466901,-4928,8504,-13356,-100,177,-66
466905,-4984,8456,-13460,-79,76,-63
466908,-5012,8540,-13392,-30,187,-58
466912,-4964,8560,-13356,-96,60,-75
466915,-5076,8464,-13292,-46,148,-70
466919,-4920,8472,-13332,-105,120,-62
466922,-4976,8480,-13300,-44,107,-83
466926,-5024,8492,-13244,-114,140,-55
466929,-5000,8448,-13444,-87,70,-92
466932,-5020,8544,-13444,-76,203,-81
466936,-4980,8548,-13316,-109,88,-109
466939,-5000,8528,-13412,-65,154,-93
466943,-4940,8544,-13376,-105,85,-91
466946,-4968,8452,-13336,-42,114,-64
466950,-4956,8524,-13432,-101,139,-104
466953,-4992,8516,-13388,-56,84,-50
466957,-5088,8532,-13392,-47,161,-71
466960,-5068,8468,-13372,-57,44,-58
466964,-4908,8504,-13488,-43,169,-38
466967,-4884,8568,-13404,-66,55,-80
466971,-5016,8488,-13336,-36,134,-46
466974,-4996,8508,-13396,-122,146,-106
466978,-4976,8460,-13436,-86,91,-122
466981,-4984,8384,-13416,-126,217,-153
466984,-5056,8528,-13288,-113,58,-126
466988,-5040,8544,-13316,-63,183,-84
466991,-5020,8476,-13516,-67,69,-51
466995,-5128,8472,-13480,-9,144,-20
466998,-5008,8500,-13480,-69,83,-32
467002,-4980,8592,-13432,-24,87,-29
467005,-4996,8528,-13476,-87,149,-79
467009,-5052,8508,-13472,-97,86,-106
467013,-4876,8552,-13444,-113,204,-155
467016,-4976,8520,-13372,-141,86,-133
467020,-5036,8452,-13448,-88,114,-111
467023,-5000,8572,-13412,-103,132,-75
467027,-5056,8428,-13452,-60,60,-57
467030,-5000,8572,-13328,-55,168,-31
467033,-5080,8564,-13368,-63,46,-23
467037,-4996,8548,-13396,-25,152,-3
467040,-4964,8628,-13376,-58,58,-53
467044,-5076,8468,-13488,-49,124,-83
467047,-4956,8480,-13408,-136,112,-140
467051,-4972,8556,-13436,-80,91,-122
467054,-5016,8520,-13416,-133,198,-125
467058,-4992,8476,-13540,-101,71,-100
467061,-4980,8468,-13352,-85,201,-103
467065,-4964,8464,-13356,-98,33,-53
467068,-5112,8568,-13392,-25,162,-34
467072,-4988,8612,-13416,-67,64,-2
467075,-4872,8500,-13524,-53,77,-40
467079,-4968,8544,-13388,-115,164,-80
467082,-5016,8560,-13468,-79,85,-92
467085,-4968,8588,-13452,-106,190,-105
467089,-4984,8504,-13456,-112,80,-155
467092,-5052,8480,-13448,-88,183,-119
467095,-5048,8480,-13340,-103,67,-138
467098,-4988,8552,-13308,-63,200,-91
467102,-5040,8452,-13320,-77,80,-76
467105,-5008,8524,-13380,-35,143,-79
467109,-5080,8532,-13476,-103,128,-36
467113,-4988,8540,-13340,-50,71,-42
467116,-4864,8544,-13380,-56,201,-75
467120,-4984,8508,-13372,-98,40,-104
467123,-4968,8480,-13292,-34,170,-86
467126,-5056,8480,-13336,-123,119,-145
467130,-5056,8572,-13472,-76,124,-126
467133,-4968,8488,-13504,-115,141,-135
467137,-5028,8420,-13496,-76,89,-85
467140,-4948,8508,-13264,-107,194,-98
467144,-5052,8464,-13344,-68,63,-87
467147,-5052,8376,-13324,-12,177,-37
467151,-5104,8576,-13464,-79,80,-43
467154,-5020,8604,-13480,-49,138,-64
467158,-4984,8532,-13404,-113,139,-108
467161,-5000,8484,-13324,-73,106,-109
467165,-5056,8524,-13360,-95,188,-92
467168,-5024,8608,-13312,-88,73,-102
467172,-5072,8604,-13452,-75,185,-86
467175,-4976,8488,-13348,-71,89,-59
467178,-5068,8524,-13520,-51,111,-52
467182,-5004,8464,-13400,-64,127,-69
467185,-4952,8436,-13400,-40,93,-64
467189,-5024,8520,-13348,-88,146,-57
467192,-4824,8552,-13380,-81,77,-83
467196,-4948,8552,-13520,-55,197,-71
467199,-5012,8508,-13520,-95,83,-111
467203,-4936,8480,-13496,-59,155,-92
467206,-5048,8644,-13460,-115,126,-109
467210,-4960,8472,-13328,-89,111,-76
467213,-4996,8556,-13316,-120,146,-99
467217,-4984,8488,-13528,-78,71,-74
467220,-4952,8488,-13472,-56,183,-33
467224,-4940,8496,-13368,-61,78,-53
467227,-5012,8460,-13468,-49,148,-109
467230,-4976,8584,-13440,-104,130,-87
467234,-4992,8512,-13400,-35,92,-98
467237,-5096,8492,-13392,-105,156,-109
467241,-4964,8528,-13444,-71,84,-82
467244,-5140,8464,-13416,-101,191,-95
467248,-5060,8520,-13368,-94,60,-81
467251,-5044,8548,-13420,-68,149,-58
467255,-5032,8524,-13412,-105,88,-103
467258,-5008,8508,-13480,-14,121,-29
467262,-5008,8556,-13368,-114,135,-69
467265,-5008,8520,-13284,-50,88,-94
467269,-5092,8496,-13452,-103,172,-79
467272,-5072,8432,-13432,-70,68,-66
467276,-4968,8468,-13356,-60,136,-54
467279,-5020,8472,-13552,-122,95,-63
467282,-4800,8436,-13396,-51,125,-70
467286,-5000,8564,-13456,-90,157,-83
467289,-5024,8564,-13432,-73,94,-60
467293,-5020,8480,-13520,-71,189,-49
467296,-4968,8548,-13456,-78,63,-89
467300,-4964,8564,-13400,-38,152,-63
467303,-4988,8536,-13372,-79,89,-70
467307,-5016,8496,-13428,-39,157,-83
467310,-5048,8388,-13388,-103,134,-97
467314,-5040,8568,-13264,-52,83,-99
467317,-4964,8468,-13400,-111,142,-105
467321,-5000,8516,-13400,-87,72,-96
467324,-4996,8544,-13432,-69,201,-66
467328,-4956,8464,-13528,-68,60,-94
467331,-4992,8436,-13516,-47,145,-68
467334,-5016,8572,-13416,-103,112,-91
467338,-5084,8452,-13280,-62,103,-87
467341,-4996,8508,-13312,-104,147,-107
467345,-5144,8540,-13460,-60,64,-88
467348,-5008,8512,-13332,-80,181,-74
467352,-5088,8592,-13440,-46,68,-103
467355,-4996,8564,-13476,-45,164,-75
467359,-4900,8572,-13496,-119,92,-108
467363,-4924,8576,-13324,-75,91,-71
467366,-4944,8552,-13256,-114,193,-100
467370,-4940,8476,-13360,-98,46,-91
467373,-5064,8532,-13348,-27,171,-77
467377,-4992,8472,-13328,-97,72,-43
467380,-4996,8492,-13496,-42,102,-54
467383,-5080,8444,-13348,-100,139,-67
467387,-5048,8500,-13400,-67,82,-81
467390,-4964,8524,-13592,-84,183,-80
467394,-4908,8592,-13256,-98,48,-95
467397,-4968,8500,-13500,-64,194,-59
467401,-5060,8540,-13468,-101,92,-117
467404,-5072,8596,-13392,-57,140,-103
467408,-5088,8432,-13460,-116,110,-81
467411,-5024,8484,-13360,-72,66,-57
467415,-5000,8460,-13464,-70,155,-47
467418,-4976,8440,-13248,-73,59,-46
467422,-4940,8568,-13288,-64,167,-50
467425,-4984,8448,-13448,-98,83,-89
467429,-4844,8504,-13468,-38,131,-77
467432,-5096,8608,-13516,-83,129,-97
467435,-4988,8544,-13432,-56,85,-88
467439,-5040,8532,-13448,-95,179,-92
467442,-5056,8536,-13412,-72,75,-99
467446,-4864,8484,-13404,-54,171,-63
467449,-4992,8524,-13552,-78,84,-84
467453,-4988,8508,-13496,-48,120,-69
467456,-5036,8476,-13548,-93,100,-75
467460,-4996,8480,-13484,-62,86,-50
467463,-5008,8488,-13436,-84,175,-82
467467,-5068,8572,-13384,-87,56,-99
467470,-4904,8472,-13296,-47,213,-87
467474,-4996,8540,-13556,-99,76,-104
467477,-4876,8460,-13236,-57,147,-65
467481,-4960,8628,-13512,-123,123,-110
467484,-4928,8480,-13248,-63,110,-94
467487,-5000,8520,-13476,-125,183,-96
467491,-5028,8504,-13292,-82,58,-104
467494,-5020,8576,-13404,-70,184,-67
467498,-5044,8544,-13472,-96,79,-98
467501,-5004,8516,-13560,-43,130,-79
467505,-4968,8616,-13356,-130,116,-106
467508,-4980,8456,-13292,-70,81,-84
467512,-5044,8532,-13520,-82,178,-87
467515,-5060,8448,-13412,-104,60,-84
467519,-4896,8488,-13268,-73,184,-73
467522,-4984,8500,-13496,-101,57,-93
467526,-5108,8508,-13424,-48,149,-87
467529,-5056,8492,-13380,-100,86,-137
467533,-5036,8536,-13408,-58,99,-52
467536,-5032,8572,-13240,-94,165,-98
467539,-5016,8420,-13296,-67,63,-87
467543,-4936,8516,-13396,-71,175,-48
467546,-5052,8436,-13340,-103,50,-83
467550,-5032,8500,-13496,-50,165,-40
467553,-4980,8548,-13360,-123,81,-88
467557,-5000,8560,-13404,-36,121,-69
467560,-5068,8504,-13396,-116,132,-82
467564,-4912,8536,-13224,-69,87,-42
467567,-4992,8648,-13496,-111,168,-88
467571,-4956,8560,-13336,-71,77,-70
467574,-5168,8532,-13244,-64,177,-69
467578,-4984,8440,-13236,-65,76,-71
467581,-4980,8444,-13444,-64,146,-71
467585,-5052,8444,-13540,-83,110,-81
467588,-4984,8572,-13476,-52,114,-90
467591,-4924,8596,-13320,-116,182,-73
467595,-4916,8504,-13548,-73,72,-74
467598,-5016,8552,-13312,-56,189,-47
467602,-4988,8508,-13464,-75,64,-45
467605,-5008,8532,-13464,-22,177,-85
467609,-5008,8432,-13404,-119,104,-101
467613,-4964,8492,-13484,-43,89,-82
467616,-5040,8536,-13476,-98,185,-78
467620,-5012,8400,-13440,-54,97,-81
467623,-5072,8544,-13476,-66,171,-79
467627,-5008,8512,-13444,-91,35,-77
467630,-4936,8592,-13476,-50,137,-39
467633,-4956,8532,-13312,-90,137,-96
467637,-4876,8468,-13504,-37,101,-85
467640,-5020,8532,-13308,-80,163,-52
467644,-4932,8464,-13392,-89,66,-70
467647,-4924,8476,-13436,-70,187,-59
467651,-4932,8492,-13388,-91,80,-126
467654,-4932,8544,-13484,-68,133,-79
467658,-5012,8464,-13340,-118,111,-134
467661,-4992,8532,-13296,-90,111,-116
467665,-4936,8476,-13464,-89,210,-127
467668,-5064,8556,-13472,-92,65,-128
467672,-4964,8600,-13400,-63,174,-99
467675,-5036,8560,-13464,-111,103,-110
467679,-4936,8524,-13368,-65,119,-74
467682,-4940,8528,-13300,-99,155,-126
467685,-4936,8476,-13356,-103,91,-83
467689,-4896,8440,-13472,-72,181,-91
467692,-4976,8488,-13364,-110,63,-109
467696,-4984,8532,-13352,-47,139,-88
467699,-4960,8464,-13220,-125,89,-88
467703,-5036,8560,-13352,-59,93,-85
467706,-5056,8516,-13388,-116,184,-77
467710,-5020,8484,-13356,-76,41,-63
467713,-5044,8600,-13272,-36,195,-71
467717,-5004,8548,-13292,-90,44,-70
467720,-4960,8592,-13412,-40,161,-66
467724,-5040,8592,-13416,-101,91,-90
467727,-5004,8540,-13204,-76,126,-96
467731,-4980,8452,-13280,-121,141,-118
467734,-5044,8452,-13380,-73,78,-89
467737,-4940,8524,-13468,-86,181,-25
467741,-5084,8476,-13348,-68,50,-79
467744,-5004,8396,-13420,-35,164,-23
467748,-5064,8432,-13432,-60,45,-30
467751,-4972,8408,-13448,-22,131,-23
467755,-4940,8484,-13256,-79,122,-76
467758,-4984,8576,-13272,-67,86,-36
467762,-4924,8480,-13344,-85,181,-70
467765,-4884,8516,-13452,-95,64,-95
467769,-4936,8480,-13360,-66,169,-96
467772,-5008,8496,-13408,-95,107,-115
467776,-4956,8572,-13420,-60,108,-68
467779,-4996,8496,-13348,-92,167,-81
467783,-4956,8472,-13436,-81,48,-61
467786,-5004,8712,-13484,-78,212,-60
467789,-5016,8528,-13584,-83,47,-74
467793,-4996,8444,-13368,-31,153,-56
467796,-4936,8540,-13500,-113,79,-82
467800,-4944,8540,-13332,-59,129,-88
467803,-5064,8588,-13480,-116,135,-97
467807,-4928,8584,-13504,-81,92,-96
467810,-5040,8524,-13496,-93,212,-95
467814,-4896,8456,-13524,-63,83,-84
467817,-5004,8536,-13448,-54,189,-85
467821,-5036,8592,-13512,-93,84,-100
467824,-4916,8448,-13372,-45,130,-100
467828,-4972,8460,-13420,-103,111,-119
467831,-5028,8560,-13612,-67,100,-95
467835,-4968,8480,-13520,-103,196,-125
467838,-4976,8572,-13316,-88,65,-98
467841,-5044,8548,-13352,-61,166,-86
467845,-4940,8576,-13348,-95,97,-98
467848,-5032,8548,-13420,-59,121,-87
467852,-5068,8484,-13488,-115,154,-97
467855,-5036,8412,-13460,-65,86,-105
467859,-4932,8324,-13360,-85,208,-85
467863,-5016,8588,-13304,-68,73,-93
467866,-5028,8504,-13404,-57,179,-85
467870,-4992,8512,-13228,-98,83,-98
467873,-4952,8588,-13496,-36,120,-86
467877,-4936,8412,-13324,-113,161,-70
467880,-5104,8500,-13492,-58,64,-43
467884,-4920,8536,-13596,-98,192,-88
467887,-4996,8556,-13452,-72,41,-131
467890,-4976,8540,-13416,-72,178,-76
467894,-4984,8480,-13388,-107,39,-71
467897,-5124,8524,-13488,-17,119,-82
467901,-4972,8452,-13392,-114,124,-82
467904,-4920,8476,-13408,-89,74,-91
467908,-5080,8484,-13400,-113,170,-87
467911,-4984,8492,-13356,-92,78,-99
467915,-5000,8492,-13432,-55,128,-64
467918,-5016,8556,-13372,-127,99,-83
467922,-4972,8512,-13304,-48,85,-70
467925,-4996,8560,-13384,-126,144,-84
467929,-5068,8476,-13356,-74,70,-75
467932,-5048,8512,-13312,-85,175,-87
467936,-5088,8616,-13356,-100,48,-93
467939,-4964,8420,-13360,-91,165,-90
467942,-4908,8496,-13432,-111,76,-101
467946,-4960,8444,-13388,-71,114,-95
467949,-5128,8492,-13304,-114,114,-105
467953,-4972,8536,-13328,-72,107,-76
467956,-4980,8532,-13184,-104,162,-103
467960,-5052,8524,-13340,-67,49,-75
467963,-5068,8612,-13388,-69,168,-27
467967,-5124,8588,-13332,-78,86,-46
467970,-4924,8556,-13304,-43,137,-53
467974,-5040,8508,-13292,-90,100,-85
467977,-5004,8488,-13396,-50,95,-91
467981,-4972,8448,-13272,-88,171,-80
467984,-4996,8536,-13328,-84,63,-55
467987,-5096,8588,-13384,-94,193,-92
467991,-5064,8424,-13424,-59,81,-106
467994,-5052,8592,-13308,-48,186,-63
467998,-5072,8540,-13452,-90,115,-78
468001,-5092,8568,-13388,-41,117,-59
468005,-4996,8468,-13400,-85,163,-80
468008,-5048,8492,-13516,-41,104,-95
468012,-4932,8564,-13556,-53,193,-47
468015,-4932,8616,-13376,-70,94,-95
468019,-4952,8484,-13496,-52,154,-30
468022,-4996,8528,-13616,-72,120,-52
468026,-4964,8572,-13444,-47,89,-70
468029,-5008,8440,-13516,-100,175,-55
468033,-5004,8460,-13488,-76,84,-89
468036,-4960,8540,-13440,-82,184,-69
468039,-4964,8488,-13460,-89,77,-71
468043,-4964,8588,-13584,-53,155,-66
468046,-4856,8500,-13572,-108,72,-85
468050,-4996,8580,-13444,-30,125,-90
468053,-5016,8572,-13408,-96,144,-101
468057,-5016,8648,-13576,-72,81,-90
468060,-5020,8400,-13564,-101,171,-102
468064,-4992,8556,-13536,-91,81,-121
468067,-4976,8496,-13400,-82,184,-106
468071,-4948,8572,-13504,-85,62,-107
468074,-4912,8440,-13376,-59,169,-85
468078,-5028,8532,-13572,-141,75,-142
468081,-5060,8520,-13444,-78,103,-81
468085,-5004,8544,-13356,-128,141,-102
468088,-4876,8540,-13288,-103,68,-99
468092,-4964,8568,-13432,-85,166,-94
468095,-4980,8528,-13448,-96,15,-123
468098,-4984,8532,-13408,-77,163,-77
468102,-4984,8488,-13408,-69,53,-88
468105,-5044,8632,-13388,-50,171,-83
468109,-4892,8500,-13508,-136,57,-129
468112,-5064,8480,-13316,-60,117,-134
468116,-4996,8564,-13504,-161,122,-136
468119,-4964,8552,-13308,-114,82,-112
468123,-5052,8536,-13168,-116,194,-114
468126,-5072,8508,-13364,-101,39,-87
468130,-5104,8500,-13292,-48,173,-55
468133,-5020,8488,-13420,-81,67,-102
468137,-5048,8564,-13284,-56,123,-78
468140,-5084,8488,-13364,-80,130,-87
468144,-5128,8520,-13368,-60,42,-58
468147,-5096,8524,-13312,-116,195,-88
468150,-5052,8528,-13248,-91,86,-87
468154,-5020,8484,-13384,-77,191,-138
468157,-5148,8604,-13364,-72,53,-78
468161,-4900,8536,-13444,-46,185,-72
468164,-5088,8548,-13296,-83,93,-58
468168,-5008,8472,-13256,-24,124,-27
468171,-4976,8504,-13328,-63,137,-26
468175,-5076,8528,-13312,-63,53,-37
468178,-4972,8496,-13360,-64,211,-39
468182,-5116,8512,-13416,-80,50,-69
468185,-5080,8524,-13476,-41,189,-39
468189,-4888,8560,-13412,-75,94,-102
468192,-4892,8536,-13456,-39,129,-57
468195,-5072,8524,-13452,-101,139,-107
468199,-4968,8472,-13296,-70,128,-73
468202,-5008,8476,-13512,-94,198,-78
468206,-4980,8476,-13364,-66,82,-64
468209,-4996,8460,-13404,-54,167,-25
468213,-5052,8460,-13508,-78,56,-49
468216,-5068,8480,-13604,-64,114,-42
468220,-4968,8548,-13436,-88,104,-46
468223,-4884,8460,-13496,-38,87,-35
468227,-4932,8524,-13468,-85,175,-46
468230,-5016,8484,-13404,-83,41,-104
468234,-4968,8520,-13588,-55,180,-46
468238,-4996,8480,-13516,-124,109,-100
468241,-4988,8436,-13432,-61,91,-85
468244,-4920,8572,-13332,-108,170,-87
468248,-5012,8520,-13388,-84,65,-69
468251,-4976,8528,-13468,-71,209,-67
468255,-4912,8556,-13400,-96,55,-68
468258,-4988,8580,-13256,-32,138,-64
468262,-4916,8548,-13364,-100,132,-55
468265,-4920,8608,-13336,-70,94,-82
468269,-4876,8540,-13404,-100,194,-98
468272,-4900,8544,-13420,-107,78,-133
468276,-5072,8576,-13464,-78,190,-131
468279,-4896,8480,-13296,-131,77,-140
468283,-4952,8512,-13572,-77,132,-105
468286,-4956,8584,-13404,-97,116,-139
468290,-5092,8576,-13300,-80,99,-81
468293,-5016,8460,-13436,-90,139,-81
468296,-5004,8504,-13372,-59,55,-70
468300,-4968,8524,-13424,-67,184,-61
468303,-4968,8568,-13296,-74,45,-61
468307,-5020,8492,-13404,-48,140,-53
468310,-4972,8480,-13420,-81,92,-95
468314,-4948,8596,-13476,-55,96,-102
468317,-5004,8468,-13456,-103,164,-127
468321,-4976,8620,-13364,-81,60,-143
468324,-4964,8536,-13400,-105,188,-119
468328,-4996,8536,-13496,-117,72,-121
468331,-5016,8532,-13300,-52,169,-83
468335,-5060,8480,-13344,-100,104,-115
468338,-5068,8464,-13472,-51,99,-85
468342,-5096,8544,-13268,-87,142,-98
468345,-5092,8600,-13464,-30,43,-66
468348,-4940,8500,-13364,-75,181,-44
468352,-5048,8572,-13272,-82,31,-98
468355,-5004,8468,-13480,-50,145,-64
468359,-4956,8516,-13484,-125,76,-102
468362,-5008,8468,-13336,-48,122,-122
468366,-5068,8532,-13424,-103,141,-129
468369,-5056,8480,-13444,-69,86,-110
468373,-5116,8464,-13256,-73,168,-83
468376,-5032,8512,-13352,-91,78,-99
468380,-5000,8448,-13384,-52,143,-52
468383,-5060,8476,-13428,-63,101,-73
468387,-5128,8480,-13296,-56,88,-57
468390,-4964,8444,-13440,-117,157,-80
468394,-5064,8616,-13200,-64,52,-66
468397,-4936,8524,-13276,-68,167,-88
468400,-5028,8540,-13508,-85,84,-76
468404,-5096,8496,-13372,-65,141,-84
468407,-4976,8400,-13312,-98,110,-104
468411,-4940,8528,-13396,-57,118,-64
468414,-5004,8536,-13208,-95,193,-68
468418,-5032,8492,-13388,-57,69,-61
468421,-4916,8492,-13308,-36,157,-74
468425,-5028,8524,-13388,-88,85,-87
468428,-4932,8444,-13340,-28,121,-67
468432,-4912,8596,-13236,-116,131,-82
468435,-5020,8440,-13420,-63,93,-58
468439,-4964,8548,-13344,-94,188,-73
468442,-5004,8476,-13324,-65,83,-76
468446,-5060,8528,-13420,-54,180,-80
468449,-4904,8516,-13332,-64,82,-104
468452,-4984,8504,-13352,-52,144,-37
468456,-4952,8496,-13508,-93,99,-101
468459,-5056,8488,-13360,-52,112,-43
468462,-4932,8396,-13396,-59,94,-75
468465,-5008,8536,-13444,-33,116,-51
468469,-4972,8552,-13468,-91,139,-80
468472,-4900,8412,-13540,-58,97,-61
468476,-4988,8536,-13460,-93,181,-82
468479,-4948,8548,-13388,-61,45,-80
468483,-4944,8520,-13408,-51,185,-101
468486,-4984,8580,-13468,-106,73,-100
468490,-4988,8460,-13496,-61,138,-61
468493,-4908,8452,-13432,-127,108,-102
468497,-4952,8460,-13476,-58,92,-93
468500,-4912,8576,-13300,-84,160,-66
468503,-4972,8576,-13524,-74,74,-82
468507,-5044,8412,-13428,-66,165,-56
468510,-4984,8548,-13436,-79,47,-53
468514,-4976,8420,-13392,-59,131,-70
468517,-5064,8464,-13412,-116,119,-99
468521,-4984,8472,-13488,-63,86,-94
468524,-5032,8452,-13508,-114,179,-119
468528,-5036,8492,-13420,-88,96,-89
468531,-4988,8548,-13420,-109,188,-112
468535,-5144,8528,-13240,-81,93,-78
468538,-4896,8432,-13340,-63,150,-87
468542,-5000,8504,-13236,-103,81,-80
468545,-5028,8452,-13428,-53,108,-82
468548,-5100,8616,-13336,-119,138,-115
468552,-4916,8540,-13172,-83,74,-91
468555,-5016,8548,-13212,-76,168,-102
468559,-5016,8452,-13332,-96,70,-86
468562,-4980,8536,-13300,-57,142,-97
468566,-5096,8456,-13476,-97,73,-91
468569,-5120,8532,-13404,-44,113,-97
468573,-4972,8496,-13376,-106,159,-87
468576,-5052,8500,-13344,-100,76,-99
468580,-5080,8528,-13520,-108,209,-156
468583,-5028,8488,-13236,-106,58,-138
468587,-5040,8480,-13288,-66,183,-80
468590,-5032,8600,-13336,-62,103,-18
468594,-5020,8524,-13272,-8,131,-53
468597,-5144,8500,-13388,-120,144,-84
468600,-5048,8468,-13400,-75,95,-114
468604,-5100,8508,-13280,-107,215,-135
468607,-5040,8484,-13168,-79,89,-63
468611,-5028,8412,-13472,-18,173,-16
468614,-5044,8484,-13276,-30,82,-13
468618,-5016,8496,-13340,15,153,-23
468621,-5104,8516,-13472,-85,130,-99
468625,-5052,8504,-13392,-59,127,-115
468628,-4980,8548,-13300,-81,163,-91
468632,-5100,8456,-13328,-47,81,-27
468635,-5044,8472,-13312,-43,209,-36
468639,-4968,8632,-13424,-55,81,-64
468642,-5044,8524,-13416,-43,169,-92
468646,-4844,8628,-13480,-112,118,-117
468649,-4908,8532,-13460,-38,106,-76
468652,-4840,8484,-13664,-89,169,-52
468656,-4956,8500,-13548,-30,53,-61
468659,-4964,8604,-13308,-61,178,-50
468663,-4940,8644,-13612,-71,105,-69
468666,-4804,8548,-13500,-54,160,-77
468670,-4956,8512,-13552,-100,101,-115
468673,-5012,8524,-13456,-75,129,-159
468677,-4960,8524,-13480,-155,141,-143
468680,-4972,8512,-13444,-77,102,-116
468684,-4964,8488,-13212,-112,176,-76
468688,-4900,8492,-13224,-96,42,-69
468691,-4992,8480,-13392,-34,172,-106
468695,-4932,8560,-13260,-131,92,-130
468698,-4996,8496,-13360,-73,123,-154
468701,-5016,8548,-13464,-114,142,-99
468705,-5076,8616,-13396,-87,59,-62
468708,-5024,8548,-13428,-64,172,-49
468712,-4916,8452,-13372,-80,50,-99
468715,-4992,8500,-13612,-48,146,-75
468719,-5020,8516,-13460,-134,123,-71
468722,-4948,8556,-13336,-66,85,-91
468726,-4956,8532,-13336,-134,176,-116
468729,-5016,8488,-13436,-82,60,-106
468733,-5032,8496,-13312,-113,201,-138
468736,-5020,8548,-13460,-82,65,-139
468740,-4912,8464,-13368,-58,181,-108
468743,-5032,8508,-13336,-110,67,-110
468747,-5104,8424,-13408,-41,119,-58
468750,-4964,8504,-13388,-102,106,-67
468753,-5064,8536,-13232,-67,89,-31
468757,-5140,8500,-13372,-99,151,-87
468760,-5096,8572,-13276,-78,86,-86
468764,-5036,8480,-13332,-90,196,-82
468767,-5004,8504,-13336,-83,65,-115
468771,-5000,8496,-13524,-78,178,-82
468774,-4984,8488,-13416,-103,62,-70
468778,-5080,8504,-13524,-45,134,-100
468781,-5004,8528,-13380,-101,164,-68
468785,-5072,8512,-13444,-62,82,-78
468788,-5152,8548,-13524,-77,209,-38
468792,-4924,8516,-13368,-68,78,-73
468795,-5000,8508,-13424,-62,171,-46
468799,-5008,8504,-13392,-73,81,-34
468802,-5000,8616,-13312,-41,122,-59
468805,-5044,8520,-13276,-81,135,-61
468809,-4904,8440,-13488,-55,96,-45
468812,-5000,8532,-13272,-83,185,-76
468816,-4940,8408,-13224,-70,81,-88
468819,-4960,8548,-13524,-60,192,-55
468823,-4996,8512,-13392,-95,79,-88
468826,-4916,8488,-13432,-43,133,-91
468830,-4948,8544,-13472,-76,100,-67
468833,-4884,8496,-13364,-41,101,-90
468837,-4948,8616,-13408,-72,180,-66
468840,-5016,8472,-13412,-78,37,-41
468844,-4984,8552,-13368,-57,209,-81
468847,-4944,8592,-13556,-83,80,-105
468851,-4936,8492,-13280,-95,194,-139
468854,-4912,8492,-13516,-131,101,-135
468857,-5052,8460,-13520,-55,122,-106
468861,-5000,8508,-13316,-116,102,-54
468864,-5016,8448,-13440,-9,71,-39
468868,-4888,8564,-13348,-64,164,-31
468871,-4960,8432,-13464,-51,59,-92
468875,-5012,8568,-13340,-87,201,-107
468878,-4996,8384,-13496,-89,73,-110
468882,-5068,8492,-13344,-88,167,-117
468885,-4980,8492,-13512,-93,105,-87
468889,-5064,8504,-13244,-58,90,-71
468892,-4968,8508,-13460,-116,154,-116
468896,-4988,8604,-13484,-55,62,-89
468899,-5028,8436,-13512,-97,200,-111
468903,-5116,8564,-13396,-48,73,-95
468906,-5044,8444,-13488,-49,161,-59
468909,-5072,8504,-13296,-79,94,-80
468913,-5016,8516,-13540,-54,99,-67
468916,-5020,8624,-13128,-101,139,-87
468920,-5052,8564,-13400,-58,76,-109
468923,-5000,8564,-13464,-89,221,-72
468927,-4968,8468,-13364,-75,51,-95
468930,-5008,8488,-13384,-63,188,-104
468934,-5104,8468,-13376,-104,81,-124
468937,-5052,8552,-13552,-70,119,-109
468941,-4908,8464,-13332,-106,128,-122
468944,-4968,8532,-13496,-60,84,-87
468948,-4984,8588,-13432,-92,167,-66
468951,-5020,8440,-13336,-59,64,-48
468955,-5088,8552,-13236,-27,183,-51
468958,-5016,8544,-13424,-95,83,-96
468961,-5048,8528,-13384,-54,151,-101
468965,-5036,8512,-13452,-133,119,-130
468968,-5044,8520,-13520,-60,95,-114
468972,-5020,8468,-13540,-94,195,-93
468975,-5100,8588,-13384,-77,74,-80
468979,-5124,8568,-13424,-45,185,-65
468982,-4972,8528,-13400,-88,68,-92
468986,-5084,8392,-13340,-56,129,-80
468989,-4892,8412,-13392,-99,142,-88
468993,-5084,8468,-13412,-58,64,-92
468996,-4940,8532,-13540,-76,192,-93
469000,-5116,8508,-13252,-94,70,-118
469003,-5056,8424,-13508,-68,188,-89
469007,-5092,8488,-13372,-83,60,-118
469010,-4964,8516,-13472,-65,159,-104
469013,-4968,8584,-13220,-94,100,-90
469017,-5080,8500,-13400,-39,106,-41
469020,-5004,8532,-13344,-82,156,-68
469024,-4976,8532,-13356,-61,74,-29
469027,-5000,8580,-13456,-54,178,-77
469031,-4920,8452,-13480,-69,77,-75
469034,-4992,8480,-13396,-60,150,-85
469038,-5040,8588,-13372,-93,74,-115
469041,-5044,8528,-13296,-43,123,-41
469045,-5028,8432,-13476,-113,142,-106
469048,-5084,8544,-13388,-66,76,-60
469052,-4952,8524,-13508,-89,182,-80
469055,-4976,8592,-13340,-69,43,-56
469059,-4940,8632,-13436,-50,174,-57
469062,-4952,8460,-13352,-82,88,-70
469065,-4984,8596,-13288,-64,163,-49
469069,-5068,8532,-13344,-108,92,-83
469072,-5040,8472,-13464,-55,86,-60
469076,-4900,8452,-13580,-93,173,-95
469079,-5016,8572,-13552,-75,72,-80
469083,-4936,8568,-13436,-73,181,-93
469086,-4916,8572,-13408,-89,88,-83
469090,-5008,8508,-13436,-49,127,-92
469093,-4948,8444,-13300,-91,128,-76
469097,-5048,8488,-13456,-54,79,-85
469100,-5036,8540,-13368,-105,192,-112
469104,-4900,8508,-13392,-54,75,-116
469107,-5092,8380,-13236,-49,190,-79
469111,-4956,8504,-13272,-98,66,-112
469114,-4948,8484,-13332,-50,143,-73
469117,-4944,8556,-13496,-89,110,-107
469121,-5016,8496,-13188,-76,118,-66
469124,-5000,8524,-13412,-117,172,-117
469128,-5016,8552,-13444,-83,55,-85
469131,-5048,8448,-13332,-57,158,-90
469135,-5100,8584,-13308,-94,56,-105
469138,-5008,8552,-13488,-48,151,-72
469142,-4988,8532,-13308,-112,94,-98
469145,-5028,8524,-13596,-54,105,-93
469149,-4936,8552,-13368,-100,176,-90
469152,-5132,8524,-13420,-74,57,-110
469156,-5056,8512,-13448,-51,187,-62
469159,-5112,8532,-13340,-85,67,-102
469162,-5064,8440,-13336,-53,132,-52
469166,-4988,8556,-13532,-107,93,-96
469169,-5048,8484,-13436,-46,107,-79
469173,-5040,8412,-13484,-123,154,-104
469176,-5016,8452,-13432,-72,79,-70
469180,-5072,8460,-13380,-73,186,-65
469183,-4992,8392,-13452,-99,63,-109
469187,-5028,8608,-13300,-39,143,-89
469190,-4976,8504,-13468,-117,93,-76
469194,-5060,8500,-13308,-62,73,-67
469197,-5080,8608,-13364,-102,161,-82
469201,-5104,8516,-13420,-80,66,-68
469204,-4916,8564,-13376,-48,186,-93
469208,-4984,8536,-13360,-97,89,-60
469211,-4908,8552,-13384,-69,136,-60
469214,-5032,8604,-13424,-111,111,-108
469218,-4952,8548,-13476,-59,77,-86
469221,-5084,8492,-13344,-103,189,-101
469225,-4956,8556,-13344,-86,69,-78
469228,-4964,8532,-13320,-62,193,-89
469232,-5024,8480,-13492,-74,79,-67
469235,-5048,8500,-13280,-36,156,-49
469239,-4936,8468,-13428,-81,110,-69
469242,-4960,8520,-13444,-63,94,-66
469246,-4948,8548,-13340,-97,169,-114
469249,-4964,8508,-13392,-83,83,-71
469253,-5128,8532,-13324,-76,190,-106
469256,-4992,8356,-13396,-79,86,-95
469260,-5064,8556,-13312,-55,171,-43
469263,-5008,8472,-13312,-89,66,-100
469266,-4908,8548,-13328,-63,121,-40
469270,-4940,8496,-13408,-101,141,-69
469273,-4972,8544,-13492,-61,83,-61
469277,-4948,8488,-13208,-93,175,-104
469280,-4900,8508,-13400,-83,82,-83
469284,-5056,8452,-13484,-63,194,-62
469287,-5016,8524,-13340,-82,89,-97
469291,-5016,8648,-13412,-36,130,-89
469294,-5040,8388,-13424,-99,123,-87
469298,-4928,8504,-13352,-27,100,-60
469301,-5032,8512,-13540,-91,184,-76
469305,-5080,8568,-13428,-64,56,-76
469308,-4960,8524,-13508,-57,198,-72
469312,-4960,8440,-13488,-93,59,-70
469315,-5008,8516,-13324,-67,132,-70
469318,-5040,8520,-13360,-94,94,-114
469322,-5024,8560,-13224,-64,91,-63
469325,-4976,8520,-13484,-99,184,-84
469329,-5080,8456,-13420,-85,57,-95
469332,-5004,8508,-13336,-53,196,-57
469336,-4988,8496,-13368,-89,93,-93
469339,-5004,8508,-13400,-68,136,-59
469343,-5008,8552,-13368,-115,138,-126
469346,-4932,8484,-13448,-56,93,-71
469350,-4992,8460,-13372,-126,153,-96
469353,-5028,8508,-13540,-66,76,-65
469357,-4980,8524,-13292,-74,182,-85
469360,-4984,8492,-13360,-78,56,-90
469364,-4956,8424,-13284,-58,188,-72
469367,-4992,8484,-13408,-90,73,-87
469370,-4996,8536,-13508,-43,127,-80
469374,-5016,8556,-13412,-122,116,-82
469377,-4848,8560,-13392,-52,70,-79
469381,-4984,8556,-13524,-81,193,-71
469384,-4992,8556,-13456,-66,61,-67
469388,-4948,8536,-13504,-73,166,-60
469391,-4968,8580,-13316,-77,53,-78
469395,-5088,8524,-13484,-55,144,-63
469398,-4860,8488,-13384,-77,113,-59
469402,-5004,8528,-13344,-67,91,-63
469405,-4920,8540,-13300,-112,189,-108
469409,-5092,8480,-13316,-79,47,-96
469412,-5088,8544,-13372,-78,175,-85
469416,-4936,8476,-13484,-91,87,-124
469419,-5088,8500,-13372,-35,125,-82
469423,-5040,8516,-13416,-119,129,-87
469426,-5076,8504,-13368,-69,111,-83
469430,-4964,8532,-13344,-90,160,-86
469433,-4952,8452,-13404,-45,92,-90
469437,-5004,8528,-13384,-50,144,-73
469440,-5048,8488,-13372,-116,86,-107
469444,-4952,8580,-13512,-68,118,-96
469447,-5036,8464,-13400,-86,172,-81
469451,-4932,8380,-13352,-59,93,-74
469454,-5060,8540,-13180,-67,184,-59
469458,-4992,8584,-13220,-87,58,-48
469461,-5004,8584,-13376,-46,178,-47
469464,-4908,8572,-13404,-63,75,-73
469468,-5020,8540,-13412,-52,131,-60
469471,-4984,8512,-13496,-94,133,-100
469475,-5072,8492,-13472,-56,85,-56
469478,-4992,8528,-13432,-87,199,-85
469482,-5004,8512,-13436,-51,60,-78
469485,-4964,8492,-13380,-48,177,-74
469489,-5020,8488,-13488,-106,101,-59
469492,-5008,8624,-13568,-49,81,-61
469496,-4908,8544,-13552,-93,164,-66
469499,-4960,8532,-13408,-59,54,-64
469503,-4932,8508,-13444,-96,206,-97
469506,-4948,8576,-13380,-84,65,-106
469510,-4936,8564,-13412,-37,177,-72
469513,-4948,8496,-13508,-101,96,-86
469516,-5028,8520,-13552,-32,127,-64
469520,-4960,8488,-13540,-92,110,-95
469523,-5016,8528,-13516,-65,81,-76
469527,-4952,8444,-13556,-98,197,-80
469530,-4880,8544,-13404,-73,62,-92
469534,-4952,8504,-13300,-78,161,-70
469537,-4988,8464,-13448,-96,62,-99
469541,-4976,8536,-13572,-48,108,-87
469544,-4944,8548,-13380,-137,135,-114
469548,-4904,8588,-13424,-77,50,-120
469551,-4972,8452,-13424,-67,159,-86
469555,-5008,8436,-13436,-126,78,-106
469558,-5024,8396,-13428,-53,128,-76
469562,-5016,8588,-13460,-120,119,-91
469565,-5080,8456,-13300,-88,57,-47
469568,-4964,8564,-13492,-102,175,-101
469572,-5028,8496,-13340,-110,34,-129
469575,-4944,8536,-13424,-82,171,-106
469579,-4988,8564,-13420,-152,83,-123
469582,-5056,8520,-13300,-72,92,-118
469586,-5024,8560,-13360,-144,148,-172
469589,-4988,8504,-13220,-109,65,-137
469593,-5028,8484,-13400,-86,194,-112
469596,-5072,8556,-13224,-80,45,-90
469600,-5140,8572,-13248,-57,153,-102
469603,-5212,8512,-13332,-112,103,-97
469607,-5204,8512,-13232,-50,97,-78
469610,-5132,8532,-13316,-137,148,-99
469614,-5160,8452,-13232,-87,85,-104
469617,-5076,8464,-13428,-69,198,-88
469620,-5108,8488,-13176,-95,45,-90
469624,-5036,8496,-13232,-59,170,-78
469627,-5116,8432,-13340,-68,99,-87
469631,-5040,8464,-13192,-25,111,-60
469634,-5124,8456,-13360,-91,148,-39
469638,-5016,8504,-13344,-60,80,0
469641,-5004,8496,-13428,-63,192,-35
469645,-5060,8516,-13316,-50,88,-25
469648,-4976,8608,-13432,-25,185,-34
469652,-4956,8488,-13464,-74,82,-35
469655,-4984,8452,-13444,-26,154,-46
469659,-5008,8488,-13388,-86,114,-83
469663,-4976,8496,-13496,-37,84,-48
469666,-4948,8476,-13448,-74,193,-80
469669,-4960,8560,-13380,-63,79,-29
469673,-5036,8460,-13432,-47,198,-40
469676,-4996,8520,-13376,-55,79,-64
469680,-5016,8440,-13488,-51,168,-54
469683,-5004,8532,-13588,-83,102,-95
469687,-5036,8496,-13496,-55,124,-85
469690,-4980,8524,-13436,-110,157,-73
469694,-4972,8572,-13576,-71,85,-67
469697,-5040,8452,-13408,-41,202,-63
469701,-5020,8520,-13532,-72,67,-79
469704,-5012,8448,-13564,-51,161,-51
469708,-5008,8436,-13428,-104,91,-92
469711,-4896,8468,-13352,-38,120,-78
469714,-5020,8520,-13436,-115,130,-66
469718,-4840,8536,-13408,-78,57,-58
469721,-4956,8584,-13496,-93,195,-93
469725,-4828,8576,-13360,-58,61,-95
469728,-5028,8548,-13392,-68,166,-80
469732,-5104,8564,-13396,-98,67,-84
469735,-4928,8520,-13248,-56,130,-84
469739,-4964,8412,-13468,-103,98,-88
469742,-4996,8456,-13424,-76,66,-83
469746,-5092,8592,-13300,-115,172,-108
469749,-4908,8528,-13400,-92,49,-83
469753,-4920,8528,-13392,-97,185,-81
469756,-4956,8468,-13220,-90,48,-110
469760,-4956,8528,-13280,-54,184,-96
469763,-5024,8440,-13408,-81,88,-120
469766,-5128,8548,-13316,-59,125,-84
469770,-5044,8508,-13324,-93,126,-120
469773,-4944,8632,-13356,-86,54,-73
469777,-5096,8440,-13320,-68,186,-87
469780,-5024,8608,-13268,-66,48,-89
469784,-5064,8540,-13352,-43,158,-75
469787,-4912,8480,-13380,-125,108,-109
469791,-4944,8540,-13404,-40,87,-98
469794,-5132,8504,-13452,-101,169,-64
469798,-4944,8528,-13420,-73,77,-71
469801,-4952,8500,-13320,-60,181,-82
469805,-5000,8368,-13432,-70,61,-67
469808,-5036,8504,-13344,-38,135,-45
469812,-4936,8548,-13408,-86,116,-87
469815,-5044,8476,-13404,-52,75,-74
469818,-5164,8448,-13240,-96,179,-114
469822,-5060,8480,-13268,-59,62,-114
469825,-5016,8504,-13384,-57,202,-83
469829,-4996,8452,-13420,-85,72,-119
469832,-4992,8524,-13388,-59,150,-48
469836,-5004,8400,-13368,-94,123,-93
469839,-5004,8416,-13316,-71,96,-75
469843,-4976,8476,-13392,-111,179,-123
469846,-4992,8452,-13272,-55,79,-97
469850,-4984,8388,-13388,-92,175,-82
469853,-5056,8452,-13324,-72,56,-76
469857,-5112,8448,-13404,-56,157,-70
469860,-5000,8464,-13528,-78,74,-84
469864,-4956,8532,-13600,-56,128,-80
469867,-5060,8484,-13396,-97,126,-88
469870,-4940,8448,-13484,-57,103,-83
469874,-4968,8444,-13500,-105,183,-119
469877,-5104,8516,-13508,-85,54,-115
469881,-4980,8560,-13400,-68,171,-55
469884,-4984,8544,-13448,-92,80,-74
469888,-5020,8484,-13512,-42,141,-85
469891,-4900,8536,-13408,-93,135,-58
469895,-4912,8592,-13496,-70,86,-48
469898,-4932,8516,-13300,-93,156,-55
469902,-4988,8524,-13404,-104,78,-97
469905,-4976,8500,-13412,-88,177,-91
469909,-4996,8504,-13480,-111,85,-129
469913,-4976,8480,-13400,-72,77,-68
469916,-5036,8460,-13404,-87,175,-86
469919,-5008,8504,-13488,-48,44,-55
469923,-5052,8460,-13352,-54,181,-45
469926,-4916,8544,-13424,-105,79,-66
469930,-4968,8508,-13252,-60,134,-103
469933,-5036,8496,-13548,-123,137,-147
469937,-5016,8468,-13336,-76,76,-122
469940,-5068,8528,-13356,-128,167,-96
469944,-5080,8520,-13352,-59,67,-72
469947,-5044,8484,-13256,-67,166,-59
469951,-5040,8480,-13352,-87,57,-67
469954,-5116,8700,-13400,-57,93,-2
469958,-4996,8456,-13180,-81,120,-91
469961,-5020,8496,-13492,-36,93,-43
469964,-4980,8420,-13340,-84,199,-37
469968,-5024,8564,-13316,-75,39,-62
469971,-4988,8564,-13320,-68,178,-83
469975,-4996,8588,-13476,-97,113,-93
469978,-4988,8424,-13424,-41,121,-106
469982,-4960,8472,-13444,-133,142,-92
469985,-5080,8400,-13324,-76,89,-80
469989,-5040,8472,-13412,-86,198,-48
469992,-5016,8640,-13324,-77,59,-67
469996,-4956,8572,-13488,-20,192,-39
469999,-4952,8608,-13192,-42,70,-52
470003,-5000,8492,-13432,-38,142,-38
470006,-4976,8488,-13308,-89,104,-63
470010,-4908,8620,-13336,-47,77,-67
470013,-4920,8528,-13420,-87,195,-105
470016,-5108,8516,-13376,-74,71,-74
470020,-5072,8540,-13444,-67,181,-71
470023,-4908,8664,-13416,-77,42,-69
470027,-5028,8472,-13368,-28,126,-60
470030,-4984,8468,-13388,-103,146,-89
470034,-4984,8508,-13352,-73,71,-42
470037,-4844,8464,-13488,-84,162,-92
470041,-4984,8500,-13540,-68,72,-63
470044,-5072,8424,-13392,-34,183,-91
470048,-4996,8540,-13468,-76,67,-94
470051,-4900,8524,-13420,-40,131,-69
470055,-4940,8588,-13540,-86,146,-110
470058,-4940,8508,-13344,-55,62,-97
470062,-5088,8672,-13612,-109,185,-105
470065,-4864,8488,-13316,-63,36,-93
470068,-4908,8424,-13576,-75,171,-122
470072,-4896,8592,-13356,-107,92,-121
470075,-4984,8508,-13480,-58,162,-130
470079,-4896,8508,-13460,-126,107,-121
470082,-5020,8456,-13380,-69,97,-93
470086,-4952,8404,-13420,-113,174,-125
470089,-5056,8524,-13512,-91,101,-82
470093,-5040,8516,-13364,-58,193,-95
470096,-4996,8552,-13300,-85,88,-88
470100,-4964,8572,-13536,-45,138,-84
470103,-5056,8440,-13356,-124,83,-104
470107,-4964,8544,-13376,-60,133,-94
470110,-5000,8480,-13412,-134,151,-119
470114,-5016,8568,-13304,-93,78,-113
470117,-5056,8444,-13328,-92,202,-79
470120,-5020,8480,-13376,-83,54,-92
470124,-5088,8532,-13368,-46,178,-99
470127,-5056,8572,-13268,-77,65,-99
470131,-5076,8544,-13440,-28,151,-61
470134,-5052,8544,-13320,-93,94,-67
470138,-5072,8540,-13420,-44,75,-62
470141,-4996,8484,-13260,-96,180,-67
470145,-5032,8516,-13320,-40,83,-83
470148,-5076,8472,-13400,-60,205,-75
470152,-5024,8476,-13332,-95,77,-76
470155,-5016,8544,-13372,-38,152,-58
470159,-5016,8552,-13416,-93,103,-62
470163,-5044,8568,-13324,-54,99,-59
470166,-5088,8532,-13368,-79,182,-50
470169,-4976,8592,-13292,-57,59,-84
470173,-5016,8516,-13340,-49,179,-56
470176,-5052,8464,-13344,-85,80,-52
470180,-5064,8396,-13528,-36,148,-65
470183,-4952,8448,-13428,-72,113,-68
470187,-4976,8596,-13432,-61,95,-58
470190,-4992,8572,-13464,-107,164,-69
470194,-5020,8460,-13432,-66,76,-49
470197,-5008,8424,-13400,-52,201,-86
470201,-4988,8548,-13324,-83,55,-64
470204,-5064,8476,-13404,-55,145,-60
470208,-4948,8588,-13600,-76,99,-83
470211,-5016,8432,-13292,-44,101,-63
470215,-4952,8536,-13552,-111,172,-56
470218,-4932,8488,-13484,-72,67,-62
470221,-5008,8480,-13296,-60,185,-96
470225,-5004,8572,-13524,-91,84,-98
470228,-4996,8592,-13416,-51,191,-82
470232,-4960,8580,-13360,-86,71,-87
470235,-4992,8576,-13364,-40,123,-70
470239,-4964,8504,-13496,-123,148,-101
470242,-5020,8544,-13336,-64,64,-103
470246,-4984,8540,-13444,-96,205,-113
470249,-4976,8540,-13488,-98,50,-108
470253,-5032,8516,-13372,-46,161,-77
470256,-4916,8444,-13400,-128,97,-116
470260,-4952,8452,-13432,-72,100,-94
470263,-4932,8572,-13540,-86,157,-152
470267,-5048,8520,-13432,-91,66,-122
470270,-5044,8468,-13452,-88,219,-91
470273,-4944,8532,-13424,-83,37,-68
470277,-5072,8488,-13292,-70,189,-110
470280,-5120,8472,-13372,-89,78,-100
470284,-4988,8456,-13364,-74,137,-118
470287,-4968,8452,-13340,-106,109,-113
470291,-5020,8516,-13352,-58,88,-89
470294,-5148,8536,-13320,-92,171,-95
470298,-4964,8412,-13380,-63,51,-108
470301,-4936,8516,-13452,-101,184,-55
470305,-5116,8500,-13584,-74,69,-96
470308,-5020,8512,-13484,-60,113,-54
470312,-4984,8468,-13332,-93,117,-73
470315,-5056,8504,-13336,-48,101,-53
470319,-4988,8484,-13500,-115,175,-68
470322,-4980,8560,-13420,-80,103,-73
470325,-5016,8408,-13552,-88,167,-69
470329,-5044,8544,-13356,-65,53,-59
470332,-5036,8488,-13364,-58,164,-56
470336,-4884,8548,-13356,-89,75,-54
470339,-5076,8516,-13352,-55,122,-56
470343,-5076,8552,-13340,-95,120,-93
470346,-4908,8520,-13552,-71,81,-60
470350,-4984,8536,-13336,-95,167,-90
470353,-4988,8552,-13364,-85,60,-46
470357,-4968,8416,-13444,-95,177,-69
470360,-5052,8564,-13452,-70,60,-72
470364,-4928,8512,-13364,-56,166,-92
470367,-4912,8612,-13412,-92,88,-88
470371,-4992,8620,-13464,-43,126,-63
470374,-5016,8504,-13356,-106,101,-80
470377,-5000,8604,-13452,-72,73,-67
470381,-4988,8516,-13308,-92,199,-74
470384,-4972,8468,-13448,-74,54,-98
470388,-4892,8460,-13424,-42,181,-65
470391,-4920,8560,-13452,-93,55,-101
470395,-4960,8520,-13508,-65,138,-93
470398,-4916,8572,-13508,-99,100,-101
470402,-4940,8468,-13356,-57,89,-93
470405,-4920,8556,-13584,-125,179,-94
470409,-5036,8520,-13404,-63,79,-95
470412,-5072,8556,-13380,-69,185,-64
470416,-4944,8532,-13444,-83,74,-98
470419,-5012,8468,-13348,-52,154,-51
470422,-5028,8440,-13392,-100,88,-109
470426,-4988,8540,-13412,-75,99,-81
470429,-5008,8572,-13280,-94,179,-104
470433,-5060,8556,-13428,-107,76,-88
470436,-5112,8536,-13380,-82,183,-88
470440,-5048,8540,-13380,-72,57,-71
470443,-5044,8536,-13388,-53,201,-64
470447,-4952,8560,-13452,-69,70,-83
470450,-5132,8532,-13384,-70,126,-91
470454,-5028,8460,-13420,-99,136,-81
470457,-4936,8560,-13424,-69,82,-101
470461,-4952,8552,-13432,-98,227,-116
470464,-5052,8488,-13480,-67,53,-57
470468,-4980,8476,-13332,-53,192,-65
470471,-5040,8504,-13352,-80,53,-63
470474,-4936,8388,-13304,-36,134,-54
470478,-4988,8548,-13368,-97,148,-93
470481,-4968,8472,-13264,-34,89,-65
470485,-4976,8548,-13312,-79,188,-67
470488,-5004,8544,-13416,-59,62,-95
470492,-4980,8516,-13428,-48,201,-70
470495,-5032,8508,-13420,-97,71,-101
470499,-4996,8528,-13324,-16,153,-93
470502,-4936,8528,-13356,-94,123,-87
470506,-5036,8532,-13432,-62,82,-64
470509,-4984,8520,-13304,-85,161,-92
470513,-4960,8472,-13388,-64,42,-71
470516,-4932,8508,-13420,-48,186,-59
470520,-5008,8584,-13428,-49,74,-59
470523,-4964,8500,-13416,-39,171,-23
470526,-4936,8564,-13384,-66,65,-42
470530,-4884,8500,-13432,-24,123,-68
470533,-4980,8520,-13496,-107,133,-110
470537,-5068,8480,-13460,-90,63,-105
470541,-5040,8500,-13284,-54,202,-68
470544,-5000,8564,-13576,-64,61,-57
470548,-5008,8492,-13500,-55,156,-56
470551,-4940,8532,-13464,-120,118,-115
470555,-4996,8400,-13376,-86,92,-145
470558,-5008,8452,-13480,-129,181,-117
470562,-5008,8532,-13512,-73,68,-95
470565,-4964,8524,-13348,-76,181,-19
470569,-5048,8432,-13368,-72,78,-69
470572,-4956,8544,-13392,-40,126,-66
470575,-4836,8508,-13400,-115,131,-71
470579,-4972,8384,-13444,-72,73,-152
470582,-5016,8512,-13416,-135,181,-131
470586,-5020,8488,-13412,-111,55,-121
470589,-5008,8472,-13420,-54,184,-54
470593,-5064,8516,-13460,-95,77,-106
470596,-4900,8528,-13344,-63,147,-70
470600,-5028,8504,-13576,-146,90,-76
470603,-4952,8436,-13420,-69,82,-92
470607,-5108,8592,-13400,-109,160,-95
470610,-5028,8608,-13392,-61,48,-59
470614,-4992,8576,-13268,-69,199,-89
470617,-5016,8528,-13288,-107,75,-97
470621,-5052,8528,-13388,-72,113,-118
470624,-5020,8528,-13388,-111,130,-83
470627,-5028,8540,-13304,-49,74,-71
470631,-5116,8496,-13300,-94,189,-59
470634,-4996,8496,-13364,-51,86,-55
470638,-5000,8476,-13304,-53,189,-59
470641,-5004,8508,-13388,-99,73,-85
470645,-5056,8496,-13296,-52,160,-124
470648,-4960,8364,-13456,-124,136,-96
470652,-4884,8476,-13296,-38,116,-84
470655,-5052,8644,-13472,-88,154,-47
470659,-4960,8580,-13344,-57,78,-20
470662,-5016,8536,-13340,-61,185,-55
470666,-5020,8596,-13488,-77,60,-63
470669,-5080,8512,-13500,-52,182,-63
470673,-4900,8560,-13376,-98,85,-73
470676,-5028,8576,-13344,-64,114,-70
470679,-4952,8492,-13484,-83,141,-91
470683,-4924,8500,-13408,-88,87,-94
470686,-4964,8476,-13432,-62,204,-88
470690,-4860,8536,-13376,-63,65,-89
470693,-4996,8500,-13440,-20,174,-72
470697,-4992,8584,-13404,-87,103,-38
470700,-4856,8516,-13272,-42,89,-70
470704,-4940,8572,-13528,-97,183,-65
470707,-5036,8640,-13496,-58,58,-83
470711,-5016,8488,-13540,-63,171,-100
470714,-4888,8496,-13488,-99,61,-92
470718,-4952,8548,-13496,-34,137,-94
470721,-4980,8516,-13332,-79,112,-109
470725,-4928,8628,-13508,-33,106,-92
470728,-4980,8560,-13464,-79,132,-124
470731,-4992,8500,-13384,-78,99,-98
470735,-4920,8524,-13464,-98,214,-113
470738,-5032,8516,-13224,-84,63,-126
470742,-4940,8440,-13376,-39,150,-87
470745,-5080,8512,-13424,-113,96,-85
470749,-5008,8484,-13424,-84,60,-133
470752,-4916,8508,-13400,-121,190,-132
470756,-4984,8376,-13308,-80,60,-128
470759,-5040,8444,-13324,-76,224,-117
470763,-4992,8500,-13412,-79,56,-85
470766,-4908,8556,-13320,-55,171,-55
470770,-4984,8540,-13600,-118,96,-77
470773,-5036,8516,-13456,-80,91,-129
470777,-4972,8496,-13348,-118,151,-131
470780,-5068,8440,-13604,-64,72,-105
470783,-5112,8600,-13416,-74,179,-66
470787,-5084,8552,-13316,-69,60,-44
470791,-4948,8552,-13256,-71,137,-79
470794,-5076,8428,-13408,-131,133,-138
470798,-5096,8456,-13468,-89,88,-137
470801,-5044,8492,-13364,-113,170,-106
470805,-5092,8432,-13344,-86,51,-48
470808,-5116,8424,-13392,-43,177,-4
470812,-5040,8516,-13372,-32,47,-7
470815,-4960,8592,-13380,-29,125,-13
470819,-5056,8556,-13464,-103,93,-39
470822,-4976,8412,-13432,-71,97,-55
470825,-4952,8516,-13488,-97,190,-58
470829,-5036,8408,-13392,-87,66,-63
470832,-5104,8528,-13532,-106,234,-70
470836,-4956,8536,-13428,-106,94,-83
470839,-5016,8480,-13292,-61,178,-79
470843,-5012,8432,-13352,-74,74,-77
470846,-4944,8532,-13408,-53,101,-10
470850,-5000,8496,-13488,-83,150,21
470853,-5044,8496,-13416,-64,61,-22
470857,-4956,8544,-13508,-72,240,-31
470860,-4864,8544,-13400,-79,43,-73
470864,-4956,8580,-13444,-67,156,-70
470867,-5032,8496,-13452,-146,104,-127
470871,-4964,8588,-13420,-61,111,-97
470874,-4940,8492,-13372,-113,163,-110
470877,-4956,8520,-13300,-98,62,-89
470881,-4852,8548,-13376,-64,191,-91
470884,-5032,8488,-13280,-104,67,-73
470888,-4920,8556,-13424,-32,120,-95
470891,-4920,8524,-13368,-95,123,-51
470895,-4940,8652,-13400,-49,66,-74
470898,-4952,8564,-13404,-102,162,-89
470902,-4924,8496,-13440,-77,93,-101
470905,-4920,8616,-13528,-75,156,-114
470909,-4952,8560,-13300,-129,74,-173
470912,-4984,8604,-13416,-79,137,-144
470916,-4948,8476,-13340,-111,140,-153
470919,-4936,8544,-13420,-59,80,-132
470923,-5028,8432,-13360,-87,166,-98
470926,-4960,8540,-13328,-64,61,-107
470929,-5136,8544,-13364,-32,191,-98
470933,-4924,8536,-13188,-83,50,-82
470936,-4944,8540,-13452,-35,136,-78
470940,-4952,8496,-13436,-86,71,-91
470943,-4976,8496,-13352,-26,106,-112
470947,-5020,8532,-13308,-94,134,-124
470950,-4976,8516,-13416,-65,83,-110
470954,-5028,8508,-13460,-121,173,-155
470957,-5020,8508,-13488,-63,90,-106
470961,-5060,8448,-13240,-70,202,-108
470964,-5040,8536,-13404,-80,51,-97
470968,-5012,8408,-13392,-48,166,-78
470971,-5028,8512,-13508,-106,110,-104
470975,-5136,8452,-13320,-57,96,-68
470978,-5112,8476,-13488,-116,172,-56
470981,-5100,8560,-13468,-72,81,-77
470985,-5008,8432,-13356,-66,194,-64
470988,-5140,8544,-13360,-62,78,-44
470992,-5016,8452,-13512,-46,161,-21
470995,-5056,8524,-13412,-102,103,-58
470999,-5004,8436,-13380,-48,84,-73
471002,-5104,8528,-13460,-92,163,-55
471006,-5012,8572,-13416,-74,80,-13
471009,-4980,8472,-13404,-86,190,-25
471013,-4960,8488,-13464,-76,65,-23
471016,-4960,8476,-13508,-53,156,-29
471020,-4916,8584,-13388,-118,97,-56
471023,-4996,8460,-13452,-59,149,-85
471027,-4980,8592,-13404,-129,149,-65
471030,-4940,8508,-13476,-80,74,-46
471033,-4976,8564,-13484,-82,201,-40
471037,-5012,8544,-13484,-109,71,-67
471041,-4976,8516,-13364,-55,151,-42
471044,-4896,8532,-13468,-128,144,-80
471048,-4892,8592,-13536,-80,120,-53
471051,-4844,8524,-13500,-146,164,-98
471055,-4892,8512,-13412,-116,77,-90
471058,-4780,8436,-13224,-7,214,-164
471062,-4868,8596,-13508,-270,292,-207
471065,-5484,8240,-13420,329,-440,145
471069,-4544,8664,-13112,-152,638,-110
471072,-5260,8340,-13816,55,-231,152
471076,-4892,8576,-13300,-15,152,-43
471079,-4796,8800,-13380,-143,240,-197
471082,-5080,8452,-13552,-127,50,-145
471086,-4864,8416,-13260,-109,37,-264
471089,-5208,8644,-13552,-152,221,-98
471093,-5172,8468,-13296,28,-49,-38
471096,-4912,8576,-13308,-80,188,-128
471100,-4936,8592,-13548,-187,236,-114
471103,-5008,8476,-13200,-26,-19,-164
471107,-4952,8596,-13516,-148,322,-235
471110,-5004,8460,-13384,-174,121,-242
471114,-5240,8444,-13428,-78,59,-202
471117,-5164,8368,-13452,-121,101,-141
471121,-5032,8376,-13532,-128,203,-132
471124,-5292,8256,-13272,76,-71,77
471128,-4924,8504,-13232,-56,188,-19
471131,-5168,8512,-13372,-37,160,33
471134,-5092,8420,-13288,0,11,-46
471138,-5012,8468,-13640,-118,254,-131
471141,-5064,8312,-13416,-68,-51,-39
471145,-4912,8504,-13416,-93,182,-146
471148,-5104,8540,-13428,-104,203,-118
471152,-5024,8440,-13376,-154,133,-164
471155,-5112,8528,-13400,61,58,-23
471159,-4988,8528,-13424,-132,201,-57
471162,-5148,8432,-13376,-19,62,41
471166,-5072,8524,-13468,22,83,18
471169,-5036,8468,-13456,-132,162,-7
471173,-5100,8416,-13292,-35,152,1
471176,-5020,8588,-13504,-56,66,-47
471180,-5048,8624,-13380,-70,168,13
471183,-4852,8568,-13344,-86,136,-106
471186,-4944,8596,-13464,-54,101,-90
471190,-4952,8444,-13528,-137,193,-95
471193,-5092,8460,-13316,-70,34,-35
471197,-5028,8628,-13244,-40,202,-31
471200,-5004,8508,-13436,-96,62,-63
471204,-5008,8488,-13260,-31,140,-46
471207,-4876,8564,-13356,-82,107,-106
471211,-4960,8456,-13348,-85,110,-109
471214,-4932,8544,-13492,-116,171,-117
471218,-4956,8588,-13380,-70,73,-73
471221,-4952,8372,-13400,-82,193,-78
471225,-4920,8488,-13436,-66,77,-82
471228,-4932,8544,-13548,-10,142,-29
471232,-4924,8480,-13468,-60,74,-86
471235,-4960,8488,-13284,-50,120,-68
471238,-4904,8544,-13348,-88,145,-109
471242,-4900,8576,-13464,-75,114,-132
471245,-4936,8512,-13376,-78,187,-173
471249,-4992,8568,-13400,-114,95,-162
471252,-4968,8444,-13412,3,103,-93
471256,-4920,8584,-13464,-98,117,-88
471259,-5012,8556,-13360,36,105,-112
471263,-5104,8464,-13392,-44,89,-135
471266,-4876,8520,-13332,16,115,-229
471270,-4868,8560,-13336,-57,161,-348
471273,-4948,8396,-13400,-92,135,-715
471277,-4816,8304,-13432,-146,353,-1247
471280,-4808,8360,-13472,-294,349,-1805
471284,-4764,8240,-13576,-242,601,-2317
471287,-4848,8260,-13580,-359,584,-2617
471291,-5188,8412,-13244,-287,448,-2206
471294,-5496,8644,-13296,-53,376,-1426
471297,-5560,8756,-13116,166,-30,-104
471301,-5540,8628,-13196,441,0,662
471304,-5280,8324,-13380,510,-208,781
471308,-5084,8428,-13352,432,-165,729
471311,-4920,8572,-13480,227,-72,441
471315,-4892,8640,-13624,80,16,137
471318,-4824,8676,-13436,-181,212,-178
471322,-4844,8620,-13548,-294,169,-354
471325,-4968,8568,-13528,-372,346,-544
471329,-5016,8508,-13440,-418,222,-624
471332,-5128,8424,-13296,-342,322,-515
471336,-5200,8432,-13220,-272,211,-372
471339,-5168,8412,-13468,-154,161,-204
471343,-5164,8360,-13340,-107,170,-57
471346,-5176,8344,-13356,-21,67,46
471349,-5040,8520,-13388,0,163,79
471353,-4976,8468,-13344,28,36,63
471356,-5060,8604,-13340,45,133,7
471360,-4968,8596,-13244,7,33,12
471363,-4864,8472,-13268,19,110,-21
471367,-4968,8552,-13368,-71,143,-188
471370,-4888,8604,-13408,-137,161,-348
471374,-4916,8564,-13436,-276,290,-560
471377,-4988,8648,-13340,-374,263,-765
471381,-4892,8516,-13372,-435,405,-888
471384,-4980,8620,-13432,-495,293,-881
471388,-5136,8416,-13488,-407,355,-792
471391,-5140,8456,-13472,-372,246,-630
471395,-5128,8320,-13352,-200,185,-361
471398,-5204,8340,-13432,-77,156,-108
471402,-5156,8296,-13332,27,5,68
471405,-5184,8352,-13292,114,86,227
471408,-5080,8484,-13492,110,-72,290
471412,-4992,8468,-13540,118,45,224
471416,-5024,8604,-13536,22,51,107
471419,-4900,8628,-13432,-9,63,-13
471423,-5012,8508,-13336,-137,170,-138
471426,-4972,8584,-13280,-162,104,-232
471430,-4992,8540,-13344,-175,263,-270
471433,-5060,8412,-13316,-202,127,-277
471437,-5052,8460,-13464,-182,212,-226
471440,-5032,8468,-13396,-165,110,-180
471444,-5012,8428,-13456,-81,140,-122
471447,-5088,8456,-13512,-112,158,-89
471450,-4992,8428,-13472,-68,27,-60
471454,-5024,8544,-13476,-51,167,-25
471457,-5100,8356,-13340,-30,21,-19
471461,-5048,8496,-13420,-2,152,-44
471464,-5060,8480,-13368,-39,68,-21
471468,-5076,8488,-13384,-33,79,-62
471471,-4996,8508,-13356,-84,144,-47
471475,-5020,8564,-13344,-63,66,-88
471478,-5124,8432,-13456,-113,181,-116
471482,-5020,8440,-13364,-106,51,-140
471485,-5060,8516,-13328,-103,169,-121
471489,-5120,8412,-13364,-130,81,-157
471492,-5048,8380,-13528,-113,129,-156
471496,-5140,8460,-13508,-141,143,-152
471499,-5084,8496,-13416,-92,87,-119
471502,-5164,8520,-13232,-121,172,-96
471506,-5076,8504,-13312,-80,56,-112
471509,-4996,8532,-13376,-91,173,-82
471513,-5072,8420,-13540,-44,21,-105
471516,-5028,8456,-13368,-40,119,-109
471520,-4916,8488,-13516,-81,147,-177
471523,-4900,8540,-13460,-94,83,-237
471527,-4932,8452,-13424,-192,239,-369
471530,-4932,8552,-13540,-249,118,-497
471534,-5096,8484,-13420,-252,302,-595
471537,-5064,8464,-13472,-331,189,-695
471541,-5084,8548,-13400,-329,270,-719
471544,-5000,8444,-13368,-381,288,-755
471548,-4984,8488,-13352,-355,225,-675
471551,-5044,8500,-13444,-380,323,-625
471555,-5136,8468,-13200,-295,185,-496
471558,-5156,8476,-13500,-185,265,-382
471561,-5092,8288,-13436,-186,105,-217
471565,-5104,8384,-13288,-41,133,-49
471568,-5132,8436,-13400,1,75,79
471572,-5056,8368,-13232,98,-7,133
471575,-5016,8484,-13404,29,89,180
471579,-4908,8352,-13328,52,-3,106
471582,-4980,8508,-13376,-29,132,25
471586,-5004,8592,-13488,-87,44,-69
471589,-4984,8520,-13432,-93,128,-103
