Time,Accel_X,Accel_Y,Accel_Z,Gyro_X,Gyro_Y,Gyro_Z
117543823,-3716,440,15908,17,284,183
117547155,-3044,-792,16352,-286,252,-337
117550763,-2724,1012,15324,-144,332,-152
117554407,-2708,2040,16232,-90,-164,-58
117558024,-2976,848,14968,-6,46,91
117561086,-3932,1588,15532,158,-220,170
117564643,-2632,-1032,16796,-86,113,-84
117568200,-3484,276,15140,-205,245,-130
117571756,-2432,1368,16072,-230,61,-412
117575313,-2644,1364,15552,-128,317,-65
117578870,-2732,1976,15664,-102,46,-23
117582365,-3380,-380,16208,24,256,92
117585637,-4112,172,16268,66,145,331
117588933,-3228,-1252,16980,-221,114,-404
117592663,-2888,1104,14804,-127,214,-123
117596307,-2860,1352,16548,45,-330,-77
117599777,-2788,1072,15316,-87,137,6
117603073,-3680,1240,15200,75,-44,185
117606457,-2708,-1024,16784,-215,194,-439
117610211,-3604,648,15960,-278,417,-157
117613744,-2844,-328,16176,-324,242,-399
117617387,-2592,1076,15328,-57,254,-72
117620857,-3072,2352,16100,-29,-159,66
117624327,-3396,-1012,16188,-4,179,68
117627710,-4056,1180,15608,126,-140,150
117631267,-2580,-620,16868,-151,18,-358
117634847,-3280,436,15176,-262,291,-212
117638381,-2620,1680,15812,-186,-26,-394
117642024,-2716,1216,15588,-89,299,26
117645407,-3720,1356,15556,-76,71,81
117648739,-3800,-1028,16640,36,213,51
117652087,-3844,328,15988,-153,275,-121
117655644,-3032,-692,16908,-223,62,-391
117659249,-2976,1084,14928,-90,22,6
117662410,-3856,1580,15152,93,-360,26
117665794,-3428,-848,16660,-113,201,-55
117669350,-3680,132,15172,44,-2,153
117672560,-2340,-476,16660,-237,225,-497
117676204,-2780,1568,15512,-152,189,10
117679674,-2620,1660,15580,-94,166,-65
117683168,-3272,-32,16012,5,92,84
117686180,-4400,112,16304,-52,310,11
117689476,-3280,-1216,16988,-256,135,-415
117693207,-2928,1108,14908,-100,53,-76
117696676,-2912,1096,16688,3,-212,-128
117700147,-3140,-4,15992,-139,47,-74
117703443,-3640,1328,15172,111,20,194
117706830,-2884,-1036,16952,-200,144,-383
117710581,-3404,496,15744,-216,384,-112
117714113,-2476,1404,15860,-300,340,-353
117717757,-2868,952,15568,-117,144,-105
117721314,-2856,2376,16012,-38,-50,-22
117724784,-3504,-768,15836,16,59,76
117727993,-4252,236,15644,-36,144,-17
117731377,-2652,-772,16828,-236,50,-422
117734957,-2624,1212,15060,-139,125,-104
117738577,-2528,1828,16012,-29,-54,-98
117742047,-3240,-448,16224,-132,176,27
117745517,-3768,1368,15492,24,261,236
117748935,-3240,-976,16412,-267,254,-315
117752544,-4048,260,16012,-113,319,-119
117756100,-2636,1824,16176,-312,75,-447
117759705,-2848,1096,14928,-13,50,20
117762954,-3792,1588,15360,42,-256,-33
117766424,-3368,-840,16572,-66,104,-31
117769893,-3712,212,15316,-190,257,-193
117773450,-2400,-396,16604,-254,81,-448
117777007,-2520,1384,15536,-252,396,-175
117780650,-2692,1916,15704,-92,32,-10
117784058,-3232,-320,16176,-64,195,18
117787417,-4020,1592,15688,80,78,282
117790714,-3280,-1400,16932,-246,148,-420
117794444,-3568,680,15196,-111,149,-78
117797914,-3096,1388,16512,-156,-91,-372
117801557,-2768,1300,15224,-103,151,-22
117805114,-2888,2064,15684,65,-158,76
117808522,-3520,-1100,16652,-58,308,-78
117812054,-3976,960,15972,-58,278,113
117815437,-2992,-504,16192,-311,319,-364
117819081,-3552,248,15624,-213,361,-241
117822638,-2848,2528,15952,18,-264,40
117826021,-2856,648,14992,0,118,91
117829144,-3868,1720,15164,128,-248,175
117832724,-2440,-1076,16680,-42,77,21
117836084,-3280,168,15292,-335,313,-369
117839641,-2716,2128,15664,124,-163,137
117843197,-2824,628,15812,-102,271,35
117846581,-3800,1716,15808,15,166,158
117849999,-3484,-1056,16568,18,217,120
117853434,-3828,224,16100,-216,276,-249
117856994,-2972,-276,16784,-220,74,-385
117860596,-2976,744,15032,-175,120,-92
117864017,-3192,1860,16144,86,-293,-58
117867487,-3416,-888,16772,-112,126,4
117870871,-3824,704,15148,-2,66,93
117873994,-2400,-308,16324,-245,192,-449
117877637,-2460,1552,15580,-254,272,-131
117881281,-2748,1848,15440,-67,169,-21
117884775,-2836,896,15380,-70,178,6
117887960,-4160,1356,16080,106,172,310
117891430,-3208,-892,16980,-290,62,-431
117894987,-3292,612,15100,-103,91,-69
117898370,-3064,1340,16524,6,-238,-104
117901840,-2652,1332,15228,-140,29,-38
117905310,-3900,932,15128,77,95,228
117908545,-2652,-828,16624,-152,238,-194
117912164,-3356,932,15936,-190,377,-134
117915720,-2844,-260,16116,-320,272,-351
117919364,-2576,1068,15228,-61,230,-104
117922921,-3060,2520,16048,14,-188,116
117926391,-3488,-1224,16040,-2,-1,126
117929774,-4360,672,15512,131,-4,162
117933094,-2296,-220,16676,-184,-113,-421
117936801,-3028,660,15128,-199,242,-196
117940357,-2620,1952,15840,-219,52,-421
117943914,-2556,1256,15404,-54,178,57
117947297,-3932,892,15684,1,151,152
117950542,-3660,-1076,16748,-96,175,-17
117954064,-3696,188,15924,-170,359,-201
117957670,-2776,184,16752,-295,-12,-444
117961177,-3000,888,15128,5,67,86
117964214,-3944,1476,15304,83,-276,-3
117967597,-3260,-968,16804,-53,102,-70
117971067,-3464,76,15432,-261,239,-220
117974537,-2272,264,16380,-269,66,-460
117978007,-2616,1292,15376,-146,331,52
117981477,-2952,2004,15428,-10,9,52
117984711,-3320,-660,16560,2,273,70
117987896,-3996,116,15964,-144,267,-108
117991453,-3052,-724,16860,-227,82,-453
117995010,-2956,1188,14928,-110,76,15
117998393,-3152,1964,16208,148,-394,-10
118001950,-3232,-820,16628,-140,243,-44
118005506,-3872,1012,15100,40,-29,162
118008914,-2532,-600,16480,-240,220,-438
118012533,-3264,804,15992,-271,343,-153
118016090,-2644,1772,15796,-259,271,-383
118019734,-2668,1352,15240,-97,212,-29
118023203,-4192,1192,15912,123,-191,297
118026760,-3692,-1580,16480,-120,254,-148
118030491,-4296,948,15496,74,-81,148
118033810,-2420,-240,16664,-131,-37,-370
118037430,-2956,804,15116,-304,211,-253
118040987,-2828,2236,15600,-107,-82,-288
118044631,-2928,712,15740,-56,272,61
118047927,-3628,1308,15708,-60,66,83
118051259,-4036,-1328,16628,-8,292,33
118054607,-3528,136,15928,-275,253,-321
118058266,-2700,1016,16468,-204,-14,-322
118061807,-3200,116,15104,-49,49,59
118065017,-4124,1276,15340,140,-384,63
118068487,-3316,-1436,16940,-199,180,-154
118072217,-4160,484,15416,-12,83,15
118075427,-2140,336,16212,-198,121,-426
118078984,-2600,1384,15296,-279,289,-161
118082652,-3104,1968,15664,28,118,101
118086011,-3728,-836,16568,-66,183,22
118089394,-4556,944,16000,81,181,275
118092690,-2808,-432,16892,-309,100,-505
118096334,-3096,832,14964,-137,80,-98
118099717,-3128,1788,16108,53,-252,11
118103100,-2724,892,15452,-60,-18,33
118106397,-3868,968,15060,37,183,153
118109718,-2432,-588,16448,-130,174,-206
118113337,-3260,860,15884,-257,395,-160
118116894,-2648,1908,15704,-329,331,-381
118120537,-2664,1100,15144,-34,146,-13
118124007,-3112,2640,15836,55,-92,209
118127390,-3620,-1476,16344,-72,91,-102
118130947,-4144,816,15632,121,3,153
118134180,-2396,-312,16844,-150,-123,-420
118137887,-3004,752,15144,-219,205,-196
118141444,-2876,1952,15588,9,-108,45
118144740,-3532,-936,16572,-72,169,60
118148124,-3688,992,15896,-66,338,102
118151546,-3004,-512,16200,-88,144,-45
118154977,-3556,88,15832,-167,372,-181
118158495,-2952,2368,16028,-48,-214,-24
118162004,-3016,896,15312,40,60,138
118165213,-3868,1168,15376,107,-184,95
118168683,-2652,-708,16724,-92,78,-71
118172067,-3388,100,15464,-254,254,-260
118175623,-2340,2064,15876,-220,9,-488
118179093,-2736,1068,15428,-108,285,70
118182588,-3628,1544,15596,-65,54,-13
118185947,-3496,-800,16356,15,252,110
118189330,-3956,172,16040,-152,246,-108
118192887,-3148,-584,16784,-195,77,-403
118196443,-2888,816,15112,-153,165,-118
118200000,-3032,1724,16252,93,-330,-72
118203470,-3392,-700,16464,-68,172,4
118206770,-3888,836,15048,74,-23,174
118210088,-2524,-672,16528,-261,224,-493
118213707,-3368,924,15916,-268,289,-94
118217177,-2672,1468,15744,-127,207,-145
118220820,-2484,1232,15144,-161,176,-103
118224464,-3928,1572,15532,100,-239,233
118228020,-3608,-1636,16140,-92,257,-116
118231667,-4096,1120,15520,92,-143,137
118235157,-2260,-524,16700,-175,55,-400
118238691,-3056,808,15160,-240,177,-205
118242247,-2716,1804,16108,-170,4,-336
118245717,-2780,992,15600,-122,281,29
118249101,-3824,1196,15708,25,206,185
118252519,-3820,-1224,16676,-74,302,1
118255867,-3748,272,16016,-184,203,-198
118259472,-2812,24,16604,-246,110,-426
118262894,-3048,792,14876,-36,-8,63
118266103,-3828,1500,15232,169,-136,171
118269660,-3488,-1072,16864,-104,87,-108
118273304,-3416,220,15384,9,52,94
118276340,-2320,-92,16232,-255,136,-456
118279897,-2544,1364,15436,-105,205,2
118283305,-2832,1988,15568,-64,175,26
118286663,-3464,-768,16520,18,131,102
118290047,-4296,292,16260,91,201,306
118293343,-3356,-1136,17012,-191,57,-402
118296987,-2716,968,14980,-130,228,-79
118300457,-2948,1756,16188,53,-314,-47
118303927,-3472,-684,16684,-29,144,35
118307334,-3580,1400,14952,15,48,144
118310606,-2676,-1124,16652,-194,175,-418
118314337,-3396,280,16296,-277,429,-196
118317893,-2584,1912,15832,-118,104,-81
118321450,-2736,784,15176,-30,218,-67
118324833,-3772,2248,15384,85,-12,323
118328217,-3492,-1100,15952,36,103,43
118331603,-3932,376,15400,-116,131,-70
118335093,-2716,1068,16696,-160,-64,-387
118338713,-2676,1348,15228,-191,132,-107
118342357,-2704,1816,15848,3,-141,-18
118345740,-3352,-632,16360,-11,312,-20
118349210,-3580,1512,15484,-38,152,152
118352715,-3304,-1092,16416,-213,364,-245
118356410,-4128,80,16220,-183,316,-116
118359929,-2664,1844,16468,-268,21,-445
118363437,-2840,936,14784,-66,169,20
118366733,-3700,1688,15236,125,-267,112
118370290,-3388,-504,16668,-15,119,61
118373674,-3668,16,15228,-210,201,-194
118377144,-2452,-428,16524,-231,143,-464
118380787,-2532,1348,15460,-265,433,-135
118384455,-2816,1760,15732,-129,60,-114
118387987,-2372,1008,15196,-54,206,-32
118391457,-3964,1836,15564,105,73,352
118394841,-3456,-1388,16940,-14,159,-34
118398397,-3800,308,15328,-126,76,-50
118401780,-2888,1096,16556,-128,-55,-382
118405424,-2712,1320,15304,-203,111,-80
118409005,-2780,1932,15968,28,-172,63
118412364,-3460,-840,16600,-55,322,-31
118415834,-3868,1136,15692,15,206,186
118419217,-3076,-752,16328,-256,399,-345
118422861,-4128,176,16088,-183,227,-161
118426418,-2564,2124,16240,-95,-118,-94
118429974,-3036,904,14936,-51,110,61
118433294,-3936,1484,15280,165,-234,172
118436828,-3376,-788,16812,-77,195,-42
118440298,-3540,208,15508,-212,190,-198
118443854,-2420,-292,16424,-198,100,-445
118447498,-2456,1412,15352,-311,372,-181
118451141,-2764,2128,15848,-39,41,13
118454473,-3408,-688,16344,-47,245,28
118457870,-4132,1568,15784,101,77,305
118461204,-3144,-1000,17072,-228,164,-368
118464935,-3500,500,14988,-165,100,-164
118468491,-3000,1520,16508,-91,-64,-365
118472048,-2928,1016,15596,-128,33,11
118475431,-3608,1292,14972,28,-67,88
118478728,-3564,-1096,16708,-70,217,-95
118482309,-3412,660,16076,-272,358,-165
118485841,-3044,-340,16052,-308,420,-354
118489489,-2648,996,15152,-183,179,-215
118493042,-2704,2460,15964,-10,-68,33
118496425,-3680,-1000,15832,-11,32,116
118499895,-3984,1144,15316,148,-153,172
118503452,-2428,-612,16760,-172,212,-165
118507119,-3352,528,15156,-173,135,-153
118510652,-2240,108,16200,-211,151,-431
118514209,-2752,1320,15520,-135,215,-16
118517765,-2912,2272,15444,-3,49,102
118521062,-3620,-1096,16508,-59,182,22
118524532,-4436,1148,16040,57,175,240
118527915,-3100,-572,16900,-286,106,-427
118531562,-3208,560,15060,-170,123,-139
118535139,-3136,1856,16280,100,-276,-13
118538672,-2804,1040,15348,-75,-27,70
118542055,-3896,840,15100,40,172,103
118545352,-2464,-412,16648,-107,208,-196
118548995,-3276,720,15868,-269,385,-128
118552552,-2660,-64,15900,-336,379,-446
118556144,-2428,1164,15132,-208,210,-247
118559813,-3036,2448,15960,47,-42,118
118563136,-3664,-1220,16072,-36,8,65
118566432,-4056,1200,15408,173,-102,208
118569989,-2516,-496,16660,-183,-30,-460
118573632,-2876,624,15016,-223,188,-230
118577189,-2816,1836,15800,-181,96,-328
118580746,-2744,1084,15648,-108,198,6
118584154,-3724,1264,15844,31,94,142
118587426,-3652,-1124,16500,-42,181,12
118590896,-3912,32,15796,-161,390,-176
118594366,-2928,-120,16888,-284,37,-453
118597922,-2992,708,14784,-13,100,68
118601219,-3356,1768,16124,80,-317,14
118604602,-3336,-812,16892,-54,65,-67
118608010,-3540,84,15420,9,201,92
118611022,-2440,1580,15792,-232,32,-463
118614578,-2620,1356,15744,-126,313,-19
118618135,-2756,1904,15644,-98,62,-42
118621518,-3376,-540,16028,42,212,124
118624902,-4340,236,16284,65,91,281
118628111,-3356,-1148,17068,-192,154,-384
118631845,-2784,1096,14748,-139,176,-124
118635508,-2984,1384,16428,68,-326,-105
118639042,-2724,1160,15276,-140,133,-41
118642599,-3620,1260,15192,64,-21,174
118645982,-2856,-1024,16828,-43,316,-102
118649625,-3492,728,15940,-259,313,-114
118653182,-2804,-604,16240,-293,341,-365
118656861,-2584,968,15252,-206,314,-242
118660431,-2876,2260,16160,-44,-141,48
118663852,-3592,-948,15944,-5,115,75
118667149,-3788,1244,15444,124,-161,136
118670706,-2684,-840,16744,-45,147,-50
118674176,-3212,284,15136,-256,213,-261
118677732,-2640,1888,15900,-202,59,-419
118681289,-2868,1160,15512,-122,209,10
118684784,-3668,1564,15568,-24,42,49
118688056,-3436,-840,16292,-36,222,91
118691439,-4212,72,16124,-125,243,-95
118694822,-2652,1620,16292,-276,183,-428
118698466,-2800,1164,14832,-46,8,11
118701675,-3624,1716,15452,93,-231,-54
118705145,-3332,-432,16480,-59,56,17
118708466,-3756,124,15328,-117,279,-117
118711999,-2404,-496,16628,-275,126,-450
118715642,-2600,1292,15532,-235,320,-135
118719286,-2584,1816,15728,-138,122,-79
118722842,-2660,996,15324,-79,94,-46
118726139,-3724,1988,15556,67,113,345
118729522,-3476,-1504,17048,-24,27,-14
118733015,-3812,460,15516,-87,161,-66
118736375,-2884,1192,16564,17,-297,-164
118739932,-2752,1504,15120,-102,107,-104
118743576,-3580,1232,15100,50,-121,67
118746959,-3380,-968,16608,-22,266,-63
118750429,-3592,564,15836,-14,272,189
118753812,-3140,-952,16412,-292,275,-351
118757522,-2788,988,15284,-165,379,-192
118761012,-2692,1948,15904,-59,-151,-79
118764569,-3476,-564,15784,-5,41,95
118767779,-3988,1272,15424,100,-191,146
118771336,-2696,-884,16936,-96,71,-89
118774719,-3224,304,15000,-206,232,-142
118778276,-2436,1584,16100,-28,-132,-136
118781923,-2560,1304,15656,-185,342,-2
118785414,-3588,1548,15408,-78,51,18
118788686,-3356,-584,16144,20,232,89
118791982,-4216,180,16312,-135,220,-76
118795452,-2532,1432,16116,-233,116,-406
118799095,-2836,1060,14840,-96,30,-9
118802392,-3616,1820,15468,52,-318,-71
118805862,-3336,-424,16292,-77,166,43
118809270,-3680,48,15236,85,-22,168
118812455,-2736,-736,16640,-207,248,-403
118816099,-2640,1392,15856,-236,235,-90
118819655,-2404,1868,15596,-90,162,-107
118823212,-3088,-136,15916,-111,164,-48
118826769,-3848,2044,15544,135,30,335
118830152,-3524,-1600,16804,-52,150,33
118833647,-3980,172,15560,-80,77,-82
118836919,-2624,1160,16348,-20,-169,-203
118840562,-2848,1172,15424,-128,33,-58
118844032,-3340,1720,15096,36,74,167
118847329,-3300,-516,16420,-76,189,1
118850625,-3836,364,16080,-176,379,-67
118854095,-2516,1020,15928,-260,352,-336
118857804,-2812,832,15408,-149,191,-187
118861295,-2724,1932,16016,-74,-25,-97
118864765,-3564,-612,15612,-30,92,83
118868062,-4252,392,15588,229,-191,216
118871532,-2904,-1144,16912,-235,44,-360
118875175,-2612,1132,15104,-184,199,-191
118878819,-2416,1536,15956,-54,-37,-168
118882400,-2648,1356,15552,-190,229,-70
118885932,-3504,1748,15360,-38,91,-20
118889316,-3292,-400,16108,-6,151,115
118892699,-4328,228,16296,-86,280,7
118895908,-2520,1244,16368,-258,172,-391
118899552,-2860,988,14864,-85,49,-65
118902849,-3568,1980,15568,47,-226,-132
118906405,-3324,-204,16184,-81,82,58
118909726,-3844,176,15376,-112,249,-54
118913172,-2852,-996,16924,-234,128,-432
118916815,-2840,1420,15716,-238,351,-95
118920372,-2420,1496,15708,-170,147,-193
118924016,-2852,364,15648,-109,148,-128
118927572,-3784,2168,15544,96,56,343
118930869,-3572,-1764,17000,-58,60,21
118934277,-4188,256,15396,-40,192,-27
118937635,-2800,924,16676,-36,-310,-226
118941192,-2628,1408,15068,-164,128,-98
118944749,-3496,1596,15216,10,-81,-30
118948132,-3356,-440,16396,-57,191,20
118951515,-3760,536,16084,-179,410,-54
118954985,-3460,-1208,16632,-271,218,-303
118958782,-2724,900,15424,-178,326,-115
118962272,-2604,1968,15932,-100,-147,-125
118966003,-2784,1068,14996,-17,8,5
118969126,-3900,1544,15356,112,-152,163
118972682,-2828,-988,16788,-94,92,-36
118976065,-3520,136,15252,-173,268,-129
118979622,-2252,1396,16064,-243,96,-467
118983204,-2772,1484,15632,-155,285,-35
118986736,-3528,1664,15340,-127,96,-38
118990206,-3236,-300,16144,34,153,105
118993589,-4436,172,16208,113,160,348
118996972,-3264,-1168,17120,-227,37,-420
119000616,-2756,1092,14896,-84,151,-76
119004086,-2904,1376,16608,-1,-302,-111
119007667,-3316,-296,16272,-85,84,-37
119011026,-3864,1200,15316,62,-2,179
119014322,-2800,-848,16804,-215,191,-407
119017966,-3620,644,15904,-231,391,-102
119021523,-2672,1264,15796,-294,249,-345
119025166,-2480,1344,15280,-111,254,-132
119028809,-2900,2408,16004,23,-184,66
119032217,-3488,-928,15960,-29,158,-30
119035663,-3996,1340,15404,105,-91,156
119039133,-2544,-892,16724,-161,2,-389
119042603,-3188,396,15004,-274,324,-233
119046160,-2580,1992,15872,23,-162,-29
119049630,-2760,1072,15636,-97,337,11
119053013,-3644,1472,15628,37,139,186
119056396,-3380,-1188,16508,-8,194,80
119059899,-3816,276,15952,-221,312,-171
119063336,-2776,1656,16248,-205,14,-389
119066893,-2868,956,15124,-124,133,-10
119070363,-3856,1688,15384,110,-362,-12
119073920,-3412,-900,16788,-86,191,-22
119077390,-3404,440,15088,-3,36,61
119080512,-2552,-516,16468,-183,161,-394
119084181,-2592,1376,15596,-324,334,-194
119087800,-2632,1868,15632,-50,85,-22
119091183,-3208,-284,16212,-90,223,-40
119094653,-4152,1648,15560,96,74,317
119097949,-3276,-1180,16920,-202,94,-402
119101593,-3640,284,15304,-139,89,-104
119105063,-2844,1532,16376,58,-240,-94
119108557,-2620,1248,15124,-147,52,-17
119112003,-3664,1120,14968,100,76,191
119115386,-3624,-1000,16792,-78,211,-63
119118943,-3372,504,16040,-232,403,-138
119122500,-2832,-308,16184,-345,342,-392
119126143,-2512,1028,15280,-225,237,-254
119129787,-2848,2500,15980,-5,-101,92
119133194,-3556,-1192,16016,4,18,89
119136380,-4004,1100,15336,152,-63,157
119139850,-2424,-660,16784,-223,-53,-376
119143493,-3260,520,15216,-225,247,-226
119147050,-2684,1740,15840,-153,105,-377
119150693,-2536,1232,15528,-135,251,-12
119154250,-2996,2312,15336,42,63,137
119157594,-3780,-1260,16700,-43,225,19
119161056,-3884,304,15964,14,153,191
119164313,-2920,-356,16628,-219,143,-390
119167957,-3032,1008,14912,-165,57,-144
119171513,-3200,2056,16144,110,-262,22
119174983,-3280,-1000,16468,-88,100,54
119178453,-4024,736,15104,66,68,116
119181666,-2444,-344,16472,-252,104,-461
119185331,-3220,796,15676,-289,345,-167
119188863,-2772,1704,15652,-233,332,-324
119192507,-2348,1420,15312,-67,81,-4
119195803,-4420,864,15916,195,-143,362
119199273,-3492,-1640,16448,-192,146,-226
119203003,-4308,1072,15616,111,-65,158
119206477,-2380,-360,16744,-165,-92,-417
119210142,-2912,864,15124,-280,202,-271
119213674,-2908,1988,15424,69,-61,156
119217057,-2744,608,15824,-80,158,16
119220354,-3928,1272,15884,-28,343,160
119223824,-3028,-848,16176,-41,171,8
119227120,-3556,196,16000,-217,314,-319
119230677,-2940,2560,15960,-233,19,-340
119234258,-3272,192,15100,17,53,74
119237356,-4048,1316,15284,120,-66,148
119240827,-2548,-780,16804,-87,42,-90
119244210,-3328,332,15164,-298,380,-280
119247767,-2616,1928,15832,-184,-39,-404
119251410,-2568,1088,15412,-116,362,58
119254880,-3012,1960,15296,-68,87,28
119258224,-3540,-772,16376,41,179,123
119261595,-3920,-220,16176,16,266,212
119264943,-2956,68,16836,-218,-28,-419
119268413,-2968,636,14916,-112,129,18
119271796,-3344,1820,16168,88,-371,-100
119275353,-3228,-676,16688,-35,158,60
119278736,-4132,384,15176,-8,61,86
119281863,-2312,20,16504,-146,118,-388
119285354,-2688,1084,15612,-196,247,-72
119288886,-2784,2060,15488,-86,107,-62
119292356,-3424,-556,16220,18,156,157
119295739,-4228,1476,15876,89,69,288
119299036,-3136,-972,17012,-249,117,-397
119302679,-3676,320,15248,-138,97,-114
119306149,-3004,1476,16464,63,-201,-117
119309731,-2628,1192,15204,-118,40,-25
119313176,-3872,1176,15040,94,12,142
119316472,-2848,-888,16860,-102,290,-106
119320116,-3480,492,15816,-227,339,-104
119323673,-2968,-564,16144,-302,381,-366
119327316,-2780,1068,15384,-184,214,-211
119330960,-2752,2192,16132,-8,-39,46
119334281,-3608,-836,15724,-26,54,12
119337553,-4008,1200,15628,182,-153,196
119341109,-2540,-712,16784,-196,-12,-396
119344753,-3280,516,15104,-203,175,-199
119348310,-2544,1716,15932,-166,93,-405
119351867,-2572,1344,15512,-160,207,3
119355250,-3800,1384,15668,9,69,76
119358420,-3240,-1056,16516,-50,190,53
119361878,-3988,296,16180,-115,353,-98
119365313,-2616,1536,16332,-265,51,-417
119368869,-2700,1192,14828,-47,78,13
119372166,-3720,1760,15268,77,-272,14
119375549,-3504,-864,16768,-49,109,-12
119379019,-3772,136,15072,-213,278,-121
119382601,-2436,-436,16548,-218,46,-420
119386133,-2500,1200,15768,-225,418,-166
119389776,-2688,2012,15584,-126,64,-64
119393246,-3116,-412,16056,-37,122,-4
119396630,-4064,1712,15856,43,109,300
119400013,-3384,-1416,16952,-153,141,-315
119403743,-3760,324,15308,-137,175,-128
119407324,-2336,-160,16684,-191,-129,-406
119411030,-2708,1312,15384,-210,243,-200
119414674,-3028,1824,15784,0,-121,52
119417970,-3564,-948,16800,-22,231,-71
119421440,-4028,1224,15884,-88,306,166
119424910,-3108,-888,16476,-264,275,-365
119428554,-3616,288,15764,-169,360,-213
119432135,-2816,2264,16012,-251,-39,-378
119435754,-2880,856,15128,24,75,84
119438877,-4044,1244,15368,129,-177,183
119442434,-3460,-1220,17228,-61,65,-62
119445904,-3076,488,15248,-105,267,48
119449287,-2380,132,16128,-158,-19,-402
119452844,-2496,1268,15968,-204,344,3
119456227,-2792,2168,15148,-50,45,27
119459571,-3580,-756,16412,37,228,102
119462941,-3944,92,16124,7,138,276
119466030,-2792,1644,16244,-221,115,-399
119469673,-2852,1104,15080,-64,-12,-6
119473056,-3096,1480,16508,71,-235,-54
119476526,-3364,-492,16636,-52,94,33
119479823,-3576,-124,15380,30,19,163
119483144,-2624,-440,16460,-246,184,-444
119486763,-2680,1380,15664,-238,293,-140
119490406,-2464,1692,15672,-144,232,-154
119494050,-2652,1132,15128,-80,94,-70
119497433,-3908,1764,15596,120,103,350
119500903,-3496,-1468,16852,-50,138,-31
119504460,-3756,432,15484,-57,52,-59
119507781,-2684,1188,16604,-205,32,-406
119511313,-2640,1368,14964,-99,25,-57
119514696,-3664,1248,15064,76,-64,39
119517993,-3288,-676,16632,-46,226,-32
119521463,-3664,420,15924,-241,427,-88
119524933,-3004,-720,16368,-296,280,-402
119528576,-2768,1016,15308,-103,202,-104
119532244,-2960,1992,16272,-85,-86,-46
119535690,-3284,-652,15576,-24,12,66
119538986,-3992,1428,15304,111,-100,147
119542543,-2540,-956,16904,-189,4,-353
119546013,-3244,340,15088,-210,290,-204
119549570,-2432,1596,15932,-220,78,-416
119553127,-2660,1212,15676,-129,294,-15
119556687,-3684,1588,15368,-82,106,19
119560126,-3520,-832,16524,7,159,108
119563398,-4176,116,16304,-145,353,-78
119566833,-3084,-876,16940,-257,44,-395
119570390,-2900,1004,14788,-143,187,-48
119573947,-2960,1608,16660,72,-354,-93
119577417,-3396,-556,16512,-43,207,34
119580800,-3696,1016,14904,33,49,127
119584121,-2752,-752,16604,-206,136,-441
119587740,-3272,760,15864,-273,480,-155
119591297,-2644,1676,15700,-129,80,-116
119594853,-2540,1148,15096,-66,257,-40
119598323,-3888,1992,15568,110,1,299
119601620,-3572,-1076,16172,-15,79,39
119605003,-3916,264,15384,-89,70,-90
119608324,-2844,1008,16652,-166,-91,-382
119611943,-2604,1300,15320,-175,129,-66
119615500,-3548,1376,15148,28,-122,3
119618796,-3344,-632,16544,3,292,14
119622006,-3540,496,16060,-264,340,-97
119625476,-2412,1216,15608,-216,316,-315
119629120,-2760,948,15232,-148,187,-171
119632701,-2768,2124,16320,-93,-162,-68
119636233,-3412,-608,15788,-61,140,71
119639616,-3840,1372,15276,149,-202,175
119643173,-2656,-860,16756,-195,118,-360
119646817,-3400,244,15156,-238,180,-131
119650373,-2504,1600,15760,-179,58,-460
119653930,-2564,1488,15464,-157,226,2
119657360,-3728,1328,15460,-16,51,53
119660610,-3500,-632,16436,-34,208,43
119664028,-4200,320,16256,-82,274,-31
119667376,-3268,-972,16968,-230,159,-404
119671020,-2844,1324,15152,-92,8,-43
119674316,-3532,1640,15396,79,-269,-11
119677786,-3292,-364,16480,-40,62,1
119680996,-3724,48,15204,-144,277,-83
119684404,-2592,-744,16740,-263,171,-458
119688023,-2656,1424,15728,-193,305,-47
119691580,-2576,1264,15872,-181,203,-223
119695223,-3016,504,15532,-117,109,-107
119698780,-4076,1568,15916,163,91,394
119702163,-3184,-1076,17000,-126,179,-144
119705893,-3888,336,15416,-7,114,14
119709127,-2832,1096,16836,-208,-29,-406
119712746,-2452,1480,15084,-151,117,-92
119716303,-2756,1884,15648,62,-74,58
119719600,-3344,-768,16796,-35,196,-42
119723070,-3632,624,15992,-10,309,163
119726453,-3172,-804,16336,-292,261,-313
119730097,-2796,1080,15316,-155,313,-155
119733765,-2656,2060,16124,-100,-118,-70
119737384,-2932,944,15076,3,-17,64
119740507,-4024,1264,15240,111,-138,161
119744063,-2672,-764,17000,-79,59,-57
119747447,-3460,24,15344,-229,317,-201
119750917,-2484,1740,15772,-242,67,-483
119754473,-2680,1348,15780,-109,254,68
119757990,-3596,1564,15592,-117,146,-26
119761500,-3556,-592,16312,67,136,112
119764918,-4144,124,16188,62,215,295
119768180,-3200,-872,16892,-235,39,-424
119771737,-2768,984,14720,-107,155,-70
119775207,-2928,1540,16460,42,-356,-87
119778677,-3404,-472,16428,-33,164,53
119782084,-3712,1032,15004,28,39,191
119785356,-2644,-684,16660,-201,160,-456
119789000,-3160,988,15776,-315,392,-131
119792557,-2692,1444,15604,-116,117,-146
119796200,-2672,1192,15292,-105,236,-93
119799757,-3728,1988,15684,22,-161,160
119803227,-3812,-1412,16092,-11,192,4
119806613,-3968,484,15296,-93,45,-83
119809931,-2292,-480,16892,-137,-67,-389
119813550,-2704,1288,15412,-199,120,-122
119817194,-2660,1868,15868,95,-188,32
119820577,-3252,-476,16464,-91,268,-10
119824047,-3880,1192,15664,10,200,176
119827430,-3188,-936,16444,-290,410,-348
119831074,-3652,348,15908,-186,303,-179
119834655,-2832,2044,16256,-248,11,-406
119838187,-2868,1020,14856,-77,102,42
119841570,-3896,1716,14936,112,-376,12
119845040,-3452,-1000,17072,-64,154,-29
119848597,-3564,336,15328,-37,54,63
119851807,-2412,-292,16400,-160,132,-440
119855450,-2440,1548,15840,-173,217,13
119858967,-2696,1832,15552,-61,94,2
119862130,-3512,-316,16180,-2,129,82
119865462,-4080,268,16032,68,85,305
119868636,-2760,1132,16252,-245,163,-405
119872280,-2608,1176,15020,-111,47,-64
119875750,-2996,1368,16676,38,-192,-96
119879220,-3280,-116,16380,-27,20,58
119882541,-3704,268,15212,73,79,169
119885726,-3012,-932,16892,-213,116,-399
119889370,-2660,1300,15928,-243,360,-166
119893013,-2504,1496,15920,-225,168,-175
119896656,-2760,956,15260,-79,143,-92
119900040,-3656,2084,15632,87,65,320
119903336,-3552,-1468,16708,-24,81,48
119906723,-4144,236,15468,-16,155,-33
119910127,-2704,1008,16836,-46,-252,-213
119913746,-2516,1232,14876,-148,151,-133
119917390,-3364,1728,14720,-11,-99,-52
119920860,-3212,-320,16324,21,223,43
119924156,-3900,632,15936,-208,383,-3
119927540,-3400,-1252,16344,-189,232,-259
119931270,-2732,1028,15372,-198,391,-198
119934938,-2700,2168,16180,-65,-210,-46
119938470,-2900,692,14948,5,49,44
119941506,-3768,1940,15092,96,-208,147
119944976,-2808,-1224,16884,-108,48,-342
119948620,-3576,200,15080,-249,315,-184
119952177,-2488,1288,15908,-211,22,-455
119955733,-2484,1620,15616,-176,366,-31
119959338,-2668,1740,15532,-99,64,-56
119962673,-3332,-260,16144,68,160,80
119966005,-4248,332,16308,-73,253,28
119969266,-2664,884,16456,-187,92,-352
119972736,-2844,1052,14820,-174,130,-103
119976380,-2840,1328,16632,41,-362,-109
119979937,-3184,-12,16104,-82,196,24
119983258,-3724,1356,14936,86,-66,165
119986616,-2900,-948,16820,-203,241,-363
119990260,-3420,488,15928,-256,319,-136
119993817,-2432,1700,15880,-131,203,-177
119997460,-2632,1008,15192,-139,223,-120
120001104,-3404,2520,15536,-89,-138,-174
120004747,-3536,-84,15732,43,92,194
120007981,-4040,-264,15732,156,-180,187
120011514,-2464,-24,16716,-236,95,-449
120014984,-2820,836,15340,-161,159,-76
120018454,-2636,1520,16076,-36,-64,-155
120022010,-3116,-128,16216,-159,289,9
120025393,-3616,1064,15648,33,211,175
120028777,-3372,-856,16416,-281,294,-254
120032445,-3932,52,16180,-148,263,-125
120035890,-2728,1868,16208,-241,123,-432
120039534,-2832,988,15012,-65,18,10
120042744,-3760,1672,15308,201,-164,199
120046300,-3456,-824,16700,-64,75,-9
120049597,-3572,84,15292,-170,264,-167
120053067,-2532,-376,16468,-258,143,-474
120056714,-2584,1476,15736,-151,213,-25
120060380,-2664,1704,15656,-167,206,-138
120063911,-3268,172,15816,-61,74,-29
120067246,-4280,1336,15936,163,124,382
120070677,-3192,-932,16960,-146,153,-161
120074321,-3752,524,15196,-40,118,-1
120077617,-2956,1288,16692,-17,-267,-167
120081260,-2544,1464,15136,-133,56,-51
120084754,-3748,1144,14916,101,-75,106
120088201,-3496,-1072,16864,-67,195,-121
120091869,-3716,1472,15708,3,257,163
120095141,-3176,-932,16356,-289,305,-363
120098784,-2576,1292,15240,-220,305,-298
120102428,-2892,2676,15868,18,-197,122
120105898,-3136,328,15092,12,35,88
120109045,-3936,1472,15248,112,-85,148
120112491,-2636,-900,16804,-148,-47,-368
120116134,-3192,412,15152,-250,325,-225
120119691,-2592,1768,15680,-213,1,-410
120123161,-2768,1280,15700,-98,304,-6
120126544,-3628,1396,15632,-51,113,21
120129927,-3588,-612,16400,35,166,129
120133335,-4036,-100,16136,-186,366,-169
120136954,-2900,-560,16848,-232,21,-477
120140511,-2844,952,14744,-139,202,-100
120144067,-3320,1604,16404,56,-337,-83
120147538,-3260,-616,16616,-50,103,45
120150921,-3876,712,15144,11,52,111
120154131,-2424,-372,16316,-205,159,-438
120157821,-3224,664,15944,-300,382,-116
120161331,-2608,1840,15624,-106,122,-112
120164974,-2584,1036,15280,-45,182,-15
120168479,-3868,1796,15792,-32,-134,94
120171914,-3560,-1100,16264,12,146,23
120175297,-3756,176,15456,87,-38,128
120178594,-2448,-228,16664,-110,-58,-378
120182262,-2660,1136,15256,-156,95,-57
120185708,-2880,1864,15632,48,-136,34
120189091,-3324,-740,16476,-51,251,-31
120192561,-3764,1116,15736,-24,173,184
120196031,-3208,-856,16292,-310,396,-308
120199674,-3524,416,16016,-168,263,-204
120203231,-2820,2096,16376,-207,3,-392
120206704,-2840,876,14980,-97,84,12
120209935,-3860,1648,15044,204,-175,219
120213468,-3608,-1152,16944,-64,129,-29
120217024,-3292,328,15300,-249,222,-209
120220581,-2448,-20,16224,-154,80,-401
120224051,-2328,1248,15704,-187,231,-72
120227608,-2504,1932,15424,-119,111,-69
120231165,-3536,-268,16148,-23,157,52
120234572,-4156,1116,16124,82,108,304
120237931,-3136,-564,16848,-300,158,-422
120241574,-3456,636,15188,-98,53,-58
120244871,-2936,1316,16540,30,-178,-147
120248428,-2552,1584,15180,-155,55,-17
120251898,-3908,908,15304,78,75,159
120255108,-2780,-764,16968,-106,233,-106
120258798,-3640,548,15960,-201,368,-96
120262221,-2404,1600,15620,-309,399,-362
120265865,-2816,1048,15484,-77,104,-91
120269370,-2964,2172,16112,-43,-40,-11
120272805,-3460,-876,15840,22,1,49
120275928,-4040,260,15596,-61,168,-54
120279311,-2444,-532,16740,-197,29,-384
120282892,-2792,1084,15044,-144,110,-110
120286511,-2456,1952,15836,16,-82,-33
120289894,-3400,-600,16376,-35,206,38
120293277,-3692,1432,15412,40,289,191
120296661,-3416,-1076,16400,-256,272,-243
120300391,-4320,144,16260,-62,304,-28
120303774,-2544,1288,16436,-227,-40,-267
120307442,-2664,1672,14560,-37,16,21
120310714,-3868,1276,15540,153,-163,166
120314271,-3272,-920,16600,-139,130,-111
120317915,-3620,392,15048,78,70,195
120321124,-2560,-928,16804,-261,106,-520
120324768,-2624,1624,15384,-157,331,3
120328151,-2596,1656,15588,-117,103,-106
120331798,-3076,36,15964,-88,150,-82
120335116,-3860,1944,15604,82,139,356
120338474,-3476,-1404,16980,-237,92,-356
120342118,-3752,584,15316,-81,181,-54
120345501,-2816,1172,16660,4,-278,-216
120348971,-2624,1400,15216,-126,94,-71
120352441,-3572,1432,14940,73,-11,227
120355824,-3048,-1136,16916,-44,207,-73
120359428,-3740,748,16112,-223,383,-32
120362851,-2640,972,15808,-264,266,-320
120366408,-2788,940,15384,-108,261,-149
120370000,-2656,2160,16108,-99,-113,-53
120373521,-3468,-644,15764,17,119,98
120376818,-4052,416,15608,113,-147,159
120380288,-2612,-876,16740,-161,-1,-347
120383869,-3352,236,15084,-217,329,-172
120387401,-2508,1528,16012,-12,-176,-72
120390958,-2532,1400,15816,-118,318,11
120394428,-3476,1528,15428,-6,178,199
120397811,-3544,-692,16208,51,138,82
120401108,-4244,268,16124,-144,287,-76
120404578,-2744,1160,16384,-208,56,-384
120408159,-2952,1064,14908,-110,96,-32
120411605,-3632,1728,15156,46,-338,-36
120415074,-3316,-684,16520,-50,205,17
120418458,-3784,228,15260,33,2,139
120421581,-2200,1048,16024,-189,204,-436
120425224,-2652,1432,15556,-253,240,-113
120428868,-2496,1728,15580,-94,135,-113
120432449,-3204,-52,15876,-92,190,-24
120435808,-3808,1860,15632,94,63,328
120439104,-3544,-1572,16828,-248,153,-336
120442834,-3824,408,15444,-100,43,-85
120446218,-2908,1056,16616,1,-154,-171
120449688,-2676,1244,15280,-161,74,-110
120453244,-3588,1440,15072,98,53,226
120456545,-2888,-1140,17024,-89,244,-67
120460145,-3628,684,16000,-192,361,-72
120463568,-3088,-848,16308,-288,367,-316
120467211,-2788,952,15316,-95,140,-141
120470716,-2932,2040,16248,-76,-14,-38
120474151,-3576,-676,15724,24,11,86
120477361,-4172,240,15612,149,-128,165
120480831,-2596,-656,16792,-202,-53,-372
120484499,-3320,176,15188,-198,265,-178
120488031,-2584,1832,15804,-27,-115,-78
120491588,-2592,1344,15676,-132,189,38
120495058,-3624,1376,15520,-50,242,189
120498528,-3692,-700,16452,17,87,78
120501738,-3944,-4,16164,-153,375,-158
120505208,-2744,1632,16412,-266,33,-459
120508789,-2864,1064,14796,-24,125,-1
120512148,-3744,1716,15388,63,-302,-85
120515618,-3456,-668,16780,-26,84,28
120518914,-3508,192,15076,-227,264,-157
120522471,-2492,-424,16536,-212,87,-414
120526028,-2536,1340,15744,-227,370,-72
120529585,-2552,2072,15520,-96,71,-14
120532992,-3264,-496,15908,47,213,102
120536351,-4028,1860,15840,46,83,314
120539648,-3312,-1432,16948,-213,155,-392
120543378,-3640,568,15352,-136,132,-128
120546935,-3004,1196,16540,41,-272,-114
120550491,-2688,1364,15248,-150,158,-73
120554048,-3564,1260,14924,87,-141,52
120557491,-3628,-1108,16820,-43,309,-59
120560988,-3484,740,15996,-112,324,98
120564371,-2876,-396,15996,-271,311,-335
120568015,-2776,964,15564,-162,344,-208
120571607,-2824,2532,16016,2,-154,33
120574868,-3528,-1124,16024,-13,142,33
120578338,-4116,1064,15568,108,-132,129
120581919,-2500,-628,16772,-70,106,-125
120585452,-3076,460,15144,-297,203,-280
120589008,-2616,1932,15656,-134,-31,-373
120592652,-2640,1108,15668,-135,320,41
120596122,-2948,2088,15232,-19,30,82
120599418,-3724,-1036,16648,-26,251,29
120602888,-3712,148,15956,17,193,173
120606185,-2792,-80,16492,-215,67,-449
120609679,-2812,892,14980,-32,-10,69
120612951,-3808,1480,15432,98,-319,47
120616335,-3488,-1020,16752,-56,101,-52
120619891,-3368,264,15240,-51,110,82
120623188,-2308,200,16380,-204,146,-423
120626745,-2584,1328,15812,-292,288,-201
120630388,-2848,2088,15384,-34,144,6
120633709,-3640,-556,16284,-31,131,34
120637068,-4456,996,15864,98,153,321
120640364,-3044,-612,16956,-277,88,-437
120643921,-3340,748,14996,-145,60,-108
120647391,-3116,1612,16416,63,-228,-67
120650861,-3456,-732,16792,-89,-1,41
120654158,-4068,572,15248,43,157,164
120657501,-2468,-296,16548,-240,45,-519
120661011,-3048,896,15612,-252,347,-127
120664568,-2768,1840,15556,-127,74,-99
120668038,-2612,1068,15412,-37,99,-24
120671424,-3912,1688,15688,60,133,316
120674839,-3680,-1508,16360,-58,73,-114
120678361,-3544,460,15136,-110,182,-105
120681942,-2512,-248,16944,-150,-125,-352
120685648,-2460,1584,15316,-281,256,-272
120689291,-3076,1896,15536,83,-126,155
120692761,-2792,656,15996,-53,168,71
120696058,-4016,904,15800,-97,386,83
120699354,-2836,-480,16124,-296,254,-359
120702998,-3492,352,15812,-168,313,-254
120706558,-2928,2632,15884,-256,51,-368
120710136,-3108,568,15112,39,7,100
120713234,-4056,1024,15384,92,-92,145
120716618,-2460,-620,16840,-113,53,-153
120720174,-3064,424,14992,-294,358,-267
120723731,-2220,668,16060,-173,-47,-383
120727288,-2672,1068,15656,-61,305,61
120730671,-2896,2044,15292,-49,105,69
120734079,-3776,-1156,16584,2,185,50
120737351,-3648,260,16100,-4,292,213
120740647,-2816,-248,16448,-256,-15,-400
120744291,-3032,900,15084,-139,174,-106
120747848,-3228,1920,16220,113,-363,9
120751231,-3572,-1048,17012,-82,196,-79
120754788,-3760,576,15128,-49,90,64
120758044,-2516,-64,16388,-156,127,-397
120761554,-2932,984,15924,-348,384,-184
120765111,-2828,1952,15404,-17,81,67
120768407,-3632,-736,16400,-54,220,48
120771791,-4080,1344,15932,81,87,318
120775122,-3044,-908,16872,-290,205,-460
120778731,-3396,628,15124,-99,41,-85
120782052,-3004,1500,16528,50,-200,-106
120785584,-2940,1192,15432,-133,17,-11
120789054,-3596,976,15060,97,70,149
120792263,-2736,-744,16584,-116,261,-106
120795907,-3348,776,15828,-280,400,-179
120799464,-2692,48,15996,-288,352,-373
120802934,-2696,792,15248,-94,139,-43
120806317,-3104,2568,15816,2,-87,107
120809638,-3584,-1396,15948,-38,39,-32
120813083,-3808,524,15096,154,-79,145
120816467,-2444,-208,16784,-141,-117,-360
120820197,-2668,1348,15360,-274,190,-250
120823841,-2972,1992,15528,12,-25,117
120827224,-3660,-1076,16744,-30,117,87
120830694,-3916,988,15796,-49,372,130
120834102,-3024,-676,16040,-57,160,-48
120837547,-3632,332,15800,-178,339,-208
120841104,-2924,2328,16260,-248,43,-404
120844661,-3224,768,15160,5,18,143
120847783,-3980,1176,15288,107,-137,122
120851340,-3508,-1236,17084,-79,59,-105
120854897,-3212,348,15428,-86,284,53
120858241,-2348,236,16132,-175,-47,-436
120861750,-2500,1324,15648,-118,310,27
120865220,-3016,2164,15484,-5,16,90
120868430,-3608,-1024,16536,4,276,20
120871727,-3872,160,15968,-138,199,-105
120875318,-3044,-516,16844,-241,128,-411
120878927,-2716,1036,14864,-198,146,-142
120882595,-3332,1664,16068,140,-310,22
120886040,-2928,912,15520,-75,116,64
120889337,-3968,612,15048,-32,89,75
120892547,-2380,-180,16396,-190,122,-422
120896190,-2876,964,15652,-316,322,-187
120899747,-2768,2056,15428,-249,271,-296
120903390,-2616,960,15356,-22,64,28
120906604,-4204,1380,15884,105,190,330
120910095,-3632,-1824,16368,-123,180,-173
120913800,-3508,684,15104,47,-62,68
120917010,-2404,112,16832,-130,-40,-327
120920567,-2628,1212,15220,-137,46,-58
120924037,-3124,2088,15476,144,-113,187
120927593,-3588,-1328,17000,-98,201,-189
120931237,-4064,612,15896,-69,340,35
120934558,-2804,-132,16064,-333,265,-333
120938177,-3192,492,15716,-196,204,-268
120941734,-2932,2716,15844,-189,52,-322
120945291,-3132,428,14984,19,-13,128
120948587,-4144,980,15596,173,-276,147
120952057,-3288,-1228,16952,-173,98,-206
120955701,-2960,572,15124,-88,194,-46
120959132,-2116,716,16172,-180,22,-347
120962554,-2700,1108,15660,-265,274,-148
120966197,-3084,2100,15172,37,154,159
120969580,-3824,-1344,16780,8,78,129
120972877,-4264,656,16232,34,345,125
120976208,-2900,-32,16676,-258,-26,-378
120979730,-3008,876,14756,-152,100,-142
120983311,-3380,1924,15768,127,-311,93
120986757,-3148,484,15804,-67,28,68
120989967,-3916,480,15068,-62,227,49
120993263,-2348,212,16268,-184,-32,-416
120996820,-2772,1216,15696,-279,422,-162
121000464,-2900,2104,15092,-256,212,-278
121004107,-2692,636,15644,56,134,57
121007341,-4184,972,16172,31,-4,254
121010527,-3064,-552,16720,-105,114,-191
121014170,-2992,744,14992,-179,151,-174
121017727,-2488,560,16672,-97,-239,-269
121021284,-2892,888,15496,-174,204,-181
121024840,-3256,1904,15288,59,-114,189
121028310,-3512,-1468,17064,-5,191,81
121031697,-3944,748,15996,-146,363,61
121035101,-2756,-316,15960,-273,286,-375
121038720,-3056,700,15656,-258,288,-333
121042277,-3200,2616,15536,-132,-159,-179
121046007,-3508,-428,15600,35,143,101
121049391,-4252,1104,15208,91,-261,93
121052774,-3088,-1364,17148,-136,59,-227
121056421,-3804,56,15160,-186,282,-161
121059988,-2244,1136,16084,-69,-78,-243
121063444,-2528,1436,15788,-238,398,-73
121067001,-3284,1952,15264,27,104,153
121070384,-3184,152,15732,66,212,139
121073681,-4464,368,16340,-48,230,91
121077016,-2572,720,16540,-226,46,-350
121080447,-2996,1056,14848,-161,69,-75
121083942,-3320,1932,15968,200,-252,74
121087387,-3040,480,15800,-73,117,110
121090770,-4088,8,15104,-51,169,-23
121093980,-2044,920,16108,-150,-21,-393
121097537,-2952,1240,15772,-234,298,-55
121101094,-2812,2064,15252,-232,295,-311
121104737,-2580,1388,15304,9,33,174
121107971,-4528,164,16308,38,305,150
121111243,-3488,-1504,16736,-262,189,-353
121114974,-3180,688,15096,46,-4,67
121118096,-3260,2068,16196,-127,-111,-366
121121827,-2760,880,15536,-20,-1,91
121125037,-4028,524,15208,127,3,188
121128246,-3332,-1244,17268,-132,141,-233
121132001,-3076,800,15908,-123,402,65
121135360,-2544,212,15904,-282,207,-352
121138917,-2448,1296,15276,-192,232,-292
121142560,-3424,2556,15640,95,-81,327
121145943,-3616,-1704,16568,15,62,57
121149240,-4248,944,15284,83,32,152
121152450,-2436,-96,16724,-158,-142,-429
121156093,-2628,1064,15280,-293,308,-286
121159784,-3012,1856,15264,149,-191,199
121163293,-2868,320,16128,-48,299,75
121166590,-3856,960,15796,-60,232,138
121169973,-2888,-532,16140,-66,259,-29
121173443,-3148,540,15860,-265,257,-332
121177003,-2600,1080,16360,-172,-44,-266
121180678,-3160,128,15112,-10,49,69
121183878,-4088,1300,15476,170,-349,96
121187323,-3412,-1364,16940,-141,145,-143
121191053,-4060,144,15112,-80,113,-71
121194436,-2240,660,16092,-104,29,-323
121197907,-2772,1000,15732,-294,318,-141
121201550,-3192,2188,15332,36,45,120
121204847,-3776,-1196,16492,8,231,98
121208168,-4608,708,16404,29,197,206
121211440,-2660,-120,16728,-288,97,-419
121214996,-2948,836,14808,-154,101,-151
121218553,-3368,1892,16032,140,-243,42
121222023,-3008,816,15888,-59,8,78
121225146,-4000,544,15056,-20,209,90
121228443,-2304,8,16268,-203,-6,-421
121231743,-2636,1396,15860,-271,389,-163
121235407,-2716,2200,15372,-73,90,29
121238679,-3408,-748,16204,34,65,70
121241889,-4260,1260,16132,30,243,296
121245272,-3120,-892,16772,-219,6,-385
121248742,-2820,1072,14924,-131,204,-123
121252386,-3060,1588,16356,55,-353,-51
121255856,-2676,1104,15504,-91,78,13
121259199,-3792,956,15200,-2,64,143
121262362,-2652,-704,16756,-194,139,-451
121266005,-3312,748,15860,-314,458,-188
121269562,-2588,1668,15692,-272,223,-324
121273206,-2564,944,15248,-56,248,-58
121276589,-3888,1876,15596,-4,-147,135
121280059,-3680,-1460,16184,-19,148,-9
121283572,-3916,484,15240,96,-59,144
121286825,-2452,-536,16728,-148,-79,-401
121290469,-2724,1268,15032,-270,274,-212
121294112,-2764,1784,15776,56,-175,3
121297409,-3388,-840,16680,-75,278,63
121300792,-3912,984,15896,-24,202,185
121304175,-3160,-600,16224,-243,360,-358
121307843,-3752,208,15740,-202,308,-181
121311376,-2928,2156,16144,-229,-34,-383
121315019,-2988,996,15008,-69,104,33
121318316,-3820,1364,15380,116,-367,37
121321786,-3508,-1000,17040,-71,152,-54
121325342,-3260,100,15188,-44,115,81
121328639,-2164,120,16376,-174,143,-466
121332220,-2568,1308,15816,-294,359,-165
121335839,-2980,2112,15368,-6,82,64
121339049,-3716,-700,16340,8,141,46
121342259,-4028,32,16184,69,142,303
121345468,-3000,-752,16872,-310,121,-456
121349112,-2836,1008,14876,-28,12,23
121352408,-3140,1692,16348,65,-224,-67
121355878,-3356,-560,16476,-19,43,1
121359136,-3684,52,15304,57,100,186
121362298,-2300,1368,15956,-226,99,-468
121365855,-2640,1480,15736,-161,337,-36
121369411,-2636,1812,15572,-131,86,-73
121372881,-3244,-272,16044,63,180,110
121376265,-4296,392,16308,36,136,307
121379561,-3492,-1364,16932,-175,53,-351
121383231,-2880,1000,14852,-144,177,-114
121386883,-2880,1492,16648,33,-332,-132
121390405,-2724,1268,15204,-108,170,-69
121393962,-3576,1296,14916,62,-19,185
121397345,-3648,-1000,16820,13,221,-61
121400815,-3584,672,16068,-307,375,-135
121404371,-2920,-456,16288,-257,247,-337
121408040,-2736,1000,15324,-194,333,-207
121411658,-2740,2444,16080,-23,-180,52
121415129,-3604,-1008,15984,4,87,88
121418338,-3904,1240,15300,137,-183,165
121421895,-2584,-632,17016,-63,133,-82
121425365,-3328,292,15236,-292,238,-216
121428922,-2532,1824,15888,-184,41,-390
121432503,-2756,1364,15404,-141,288,28
121435948,-3876,1368,15448,-39,14,68
121439245,-3784,-1036,16720,19,238,62
121442628,-3940,264,15872,-146,285,-123
121446185,-3068,-680,16728,-197,88,-437
121449742,-2752,1108,14912,-85,32,-4
121453038,-3000,1864,16200,101,-337,-15
121456599,-3388,-612,16556,-77,111,-34
121460114,-3856,756,15216,46,24,119
121463275,-2476,-444,16456,-222,181,-476
121466918,-2608,1500,15536,-295,295,-193
121470562,-2648,1840,15664,-75,174,-28
121474032,-2732,1024,15412,-71,133,-42
121477502,-4012,1640,15760,99,118,309
121480885,-3276,-1152,16804,-72,183,-103
121484552,-3664,356,15248,-106,86,-64
121487947,-2512,-236,16872,-166,5,-368
121491382,-2760,1276,15132,-110,42,-44
121494852,-3856,1040,15040,107,-84,126
121498322,-3608,-908,16652,-74,199,-70
121501792,-3488,668,15764,-8,282,138
121505088,-2836,-480,16200,-300,287,-366
121508756,-2740,1096,15288,-165,232,-215
121512375,-2876,2364,16192,-91,-82,28
121515758,-3348,-956,15892,-9,24,69
121518968,-3984,1392,15236,115,-49,153
121522438,-2644,-720,17024,-161,-81,-314
121526082,-3148,324,15104,-225,329,-228
121529638,-2540,1832,15892,-207,38,-419
121533220,-2512,1292,15600,-107,257,62
121536665,-3824,1440,15548,-50,149,88
121540049,-3480,-992,16480,-11,155,65
121543432,-4036,280,16084,-173,351,-139
121546989,-3120,-668,17028,-234,17,-409
121550545,-2836,996,15132,-148,193,-146
121554102,-3100,1772,16108,88,-339,-26
121557633,-3544,-756,16720,-32,43,54
121560869,-4004,680,15096,-24,99,115
121564165,-2504,-240,16380,-166,85,-438
121567722,-2964,928,15768,-283,426,-132
121571279,-2704,1940,15448,-106,71,-23
121574749,-2552,968,15196,2,185,16
121577872,-4128,1488,15772,62,66,316
121581168,-3240,-1104,16804,-204,206,-420
121584922,-3572,388,15468,-128,90,-128
121588403,-2844,1492,16584,-128,-112,-362
121592099,-2700,1188,15272,-124,79,-21
121595569,-2948,1852,15536,73,-177,115
121599039,-3580,-1104,16928,-98,275,-103
121602682,-4128,800,15808,-55,270,103
121606065,-2748,-248,16196,-289,343,-349
121609733,-3496,404,15904,-192,188,-210
121613266,-2920,2528,16064,-241,5,-385
121616736,-3292,644,15084,-3,9,104
121619859,-4128,1096,15436,172,-104,152
121623415,-2600,-516,16948,-167,144,-157
121627059,-3032,616,15172,-275,209,-214
121630616,-2200,676,16416,-119,68,-322
121634110,-2644,1240,15596,-98,191,30
121637469,-3184,2204,15324,64,87,180
121640765,-3788,-1268,16756,-74,171,-63
121644322,-3672,312,15928,20,224,206
121647619,-2896,-236,16884,-284,36,-417
121651175,-3032,992,14972,-172,91,-184
121654645,-3312,1924,15872,143,-288,72
121658164,-3320,-1144,17076,-105,50,19
121661585,-4176,600,15208,-5,180,110
121664882,-2176,-32,16320,-228,34,-479
121668352,-3016,1028,15788,-228,372,-151
121671995,-2800,1828,15652,-113,41,-41
121675465,-2324,1500,15292,-28,115,25
121678849,-4452,740,16028,76,144,294
121682168,-2892,-336,16900,-183,151,-243
121685789,-3376,592,15108,-127,169,-76
121689298,-2488,36,16752,-155,-167,-397
121692815,-2664,1196,15192,-51,93,42
121696112,-3972,828,15264,49,-106,142
121699495,-3456,-1196,16996,-51,217,-157
121703139,-3296,732,15988,-77,357,126
121706525,-2892,-400,16088,-287,276,-363
121710190,-3080,500,15632,-209,331,-302
121713722,-3024,2536,15680,55,-190,180
121717192,-3196,264,15060,47,96,88
121720315,-4036,1084,15296,98,-73,145
121723698,-2400,-584,16644,-152,-27,-404
121727342,-3024,776,15144,-282,273,-252
121730899,-2716,1808,15756,-108,-68,-308
121734567,-2820,1012,15780,-108,313,19
121738012,-3836,976,15528,-7,42,177
121741222,-3976,-1496,16816,-17,235,-21
121744778,-3532,344,15968,-59,285,148
121748162,-2688,40,16580,-192,5,-367
121751458,-3016,756,15008,-62,33,25
121754668,-3860,1444,15224,173,-124,180
121758273,-3428,-976,16868,-102,147,-95
121761782,-3248,388,15224,-31,105,37
121765078,-2184,0,16308,-199,108,-434
121768461,-2636,1392,15612,-132,261,40
121771931,-2680,1836,15468,-40,125,4
121775228,-3552,-684,16352,-30,126,99
121778611,-4024,108,16140,65,155,295
121781931,-3140,-724,16836,-263,72,-429
121785464,-2824,1080,14972,-73,73,-24
121788851,-3156,1780,16316,74,-247,-14
121792352,-3472,-852,16956,-32,67,6
121795527,-3600,212,15384,-243,290,-152
121799084,-2624,-488,16504,-174,38,-460
121802641,-2640,1376,15636,-244,425,-102
121806288,-2520,1464,15640,-191,110,-186
121809952,-2512,1452,15144,-39,125,-50
121813398,-4104,1452,15856,83,93,341
121816694,-3264,-944,16668,-94,131,-138
121820251,-3976,352,15300,-68,139,-13
121823634,-2780,1276,16760,-215,-80,-415
121827278,-2692,1396,15112,-109,133,-48
121830835,-2696,1956,15908,48,-212,27
121834242,-3424,-968,16592,-44,327,-52
121837688,-3748,1412,15608,-40,234,156
121841158,-3284,-1100,16392,-232,271,-314
121844888,-3668,-84,16012,-224,425,-268
121848445,-2784,2404,15952,-235,-59,-372
121852088,-3168,436,15156,-13,138,40
121855385,-3924,1672,15232,41,-278,-47
121858903,-3300,-984,16868,-6,49,-43
121862151,-3312,332,15216,-258,253,-217
121865708,-2240,112,16532,-154,23,-443
121869178,-2468,1372,15460,-168,315,15
121872648,-2828,1940,15600,-48,13,18
121875945,-3508,-700,16464,38,220,100
121879328,-4220,-36,16240,72,129,303
121882648,-3052,-952,16960,-222,99,-458
121886181,-3052,1124,15004,-94,55,9
121889391,-3724,1676,15432,94,-324,-70
121892896,-3300,-416,16372,-100,146,-2
121896331,-3684,188,15332,44,13,163
121899541,-2624,-780,16760,-224,232,-460
121903184,-2544,1644,15492,-306,325,-198
121906852,-2652,1800,15508,-84,134,-73
121910298,-2900,-8,16004,-122,202,-102
121913768,-3804,2132,15720,119,31,323
121917151,-3616,-1628,17140,-9,154,28
121920534,-3944,316,15440,-112,90,-103
121924004,-2820,1292,16400,12,-178,-140
121927561,-2704,1232,15356,-184,71,-81
121931031,-3404,1536,14916,131,41,213
121934439,-3560,-1056,16568,-53,202,-50
121937971,-3656,732,16048,-153,406,-44
121941441,-3340,-1180,16500,-262,335,-286
121945171,-2680,1340,15208,-264,275,-327
121948815,-2804,2576,15912,-3,-83,61
121952111,-3416,-1032,15848,-9,-4,64
121955408,-3804,1700,15272,159,-101,164
121959014,-2708,-1180,16812,-75,57,-17
121962434,-3400,328,15200,-229,282,-208
121965991,-2500,1524,16052,-200,124,-430
121969635,-2556,1288,15664,-180,278,-35
121973191,-2644,1888,15604,-68,160,-48
121976661,-3576,-464,16204,24,114,152
121980045,-4052,-20,16348,104,217,285
121983451,-3052,-520,16892,-286,35,-456
121986985,-2928,744,15140,-93,116,-28
121990368,-3028,1424,16304,0,-295,-137
121993873,-3420,-444,16288,-96,47,29
121997134,-3900,796,15152,36,65,164
122000344,-2484,-492,16468,-223,135,-458
122003988,-2572,1272,15744,-247,448,-103
122007656,-2596,1736,15872,-148,78,-149
122011188,-2564,1016,15180,-50,231,-33
122014658,-3936,1876,15636,80,15,318
122017954,-3404,-1324,16924,-29,120,-24
122021511,-3952,136,15384,-123,111,-89
122024981,-2472,-300,16844,-176,-66,-420
122028625,-2712,1212,15268,-145,142,-60
122032206,-2564,1984,15636,30,-146,3
122035478,-3616,-872,16452,-19,279,-2
122038861,-3748,716,15956,-26,195,198
122042244,-3220,-984,16296,-199,355,-320
122045888,-3760,4,16088,-271,305,-269
122049271,-2760,2604,16292,40,-139,70
122052654,-3620,-1052,16160,-49,94,60
122056038,-3776,1744,15144,129,-152,147
122059697,-2828,-1256,16652,-25,129,12
122063064,-3352,248,15300,-231,192,-233
122066621,-2592,1592,15708,-194,77,-405
122070178,-2644,1224,15760,-157,176,-46
122073735,-3536,1704,15544,-47,99,-45
122077118,-3468,-528,16152,2,157,96
122080328,-4116,312,16320,-106,316,-68
122083821,-3112,-920,16832,-217,167,-372
122087441,-2972,884,14740,-122,64,-60
122090824,-3040,1724,16600,70,-227,-47
122094333,-3404,-636,16356,-83,82,22
122097591,-3696,300,15140,53,90,103
122100801,-2692,-784,16676,-209,69,-436
122104357,-2704,1440,15900,-202,378,-143
122108025,-2548,1872,15608,-135,98,-96
122111471,-3144,-184,15884,-75,113,-40
122114941,-3836,1972,15656,49,127,322
122118324,-3476,-1472,16872,-168,102,-287
122122054,-3972,332,15448,-58,166,-30
122125437,-2844,1012,16716,-214,-11,-392
122129081,-2636,1356,15088,-113,175,-97
122132662,-2740,1952,15772,-4,-128,-34
122136108,-3388,-576,16516,7,235,15
122139318,-3876,656,16044,-249,353,-49
122142788,-3164,-976,16424,-208,266,-312
122146431,-2992,964,15496,-143,345,-142
122149988,-2704,1904,16280,-102,-138,-76
122153631,-3116,844,15228,-25,96,24
122156889,-3812,1588,15252,165,-231,178
122160398,-2920,-932,16892,-53,80,-23
122163781,-3444,316,15400,-228,246,-189
122167338,-2468,1520,15924,-186,18,-428
122170895,-2608,1516,15732,-188,365,-21
122174451,-2760,1764,15500,-86,51,-53
122177835,-3376,-456,16044,46,230,152
122181218,-4128,200,16236,40,92,303
122184451,-3236,-1176,16720,-191,152,-382
122188158,-3020,964,15028,-126,117,-98
122191628,-2840,1456,16764,23,-284,-69
122195133,-3376,-436,16072,-98,138,12
122198481,-3572,1436,14836,69,-39,164
122201864,-2904,-1136,17080,-216,239,-416
122205595,-3592,528,15988,-297,349,-148
122209176,-2536,1524,15648,-248,290,-336
122212795,-2704,888,15428,-135,186,-126
122216351,-2836,2380,15972,-39,-188,69
122219822,-3512,-1032,15864,-33,126,-10
122223378,-4048,1112,15352,110,-146,151
122226935,-2612,-640,16848,-163,66,-330
122230492,-3260,300,15144,-264,194,-265
122234073,-2580,1964,15864,-169,-1,-400
122237605,-2760,1220,15604,-140,264,35
122241075,-3684,1480,15648,-41,35,34
122244372,-3524,-852,16308,7,257,87
122247581,-4128,4,16128,-152,261,-142
122250965,-2556,1916,16484,-251,119,-420
122254608,-3080,840,14876,-75,11,27
122257867,-3596,1868,15248,204,-183,152
122261375,-3460,-584,16472,-67,98,18
122264671,-3540,144,15176,-190,240,-131
122268228,-2476,-392,16444,-223,167,-462
122271872,-2564,1376,15620,-185,235,-40
122275428,-2596,1824,15664,-70,173,-49
122278898,-3164,-324,16092,-96,137,-21
122282392,-3944,1740,15828,128,99,328
122285752,-3512,-1308,17160,-251,146,-393
122289482,-3596,416,15144,-136,80,-153
122292952,-3008,1460,16280,-91,-49,-352
122296544,-2916,1216,15388,-150,67,-65
122299978,-3628,1232,14840,58,-88,95
122303275,-3512,-1096,16736,-63,190,-78
122306856,-3508,684,16100,-55,272,92
122310128,-2872,-436,16164,-328,346,-344
122313772,-2552,1048,15292,-176,234,-213
122317415,-2928,2552,16088,-10,-71,39
122320799,-3472,-1096,15968,-36,16,110
122324269,-4060,1292,15208,152,-52,169
122327739,-2488,-688,16888,-132,47,-139
122331299,-3272,380,15216,-205,268,-224
122334877,-2656,1792,15664,-230,96,-418
122338409,-2468,1264,15816,-90,185,28
122341792,-3632,1608,15584,-74,172,16
122345175,-3944,-836,16340,21,118,155
122348559,-4056,-132,16332,-185,389,-182
122352202,-3020,-184,16800,-275,77,-425
122355759,-2900,700,14932,-104,50,-70
122359191,-3168,1692,16404,58,-255,-67
122362612,-3368,-808,16728,-77,27,15
122365909,-3772,792,15076,-11,132,87
122369205,-2508,-436,16756,-203,63,-476
122372762,-2628,1396,15872,-253,429,-122
122376405,-2608,1652,15740,-161,81,-141
122379962,-2464,1412,15284,-34,142,-54
122383455,-4180,1604,15744,100,72,357
122386815,-3372,-1528,16084,-101,135,-134
122390546,-3724,492,15244,153,-5,157
122393842,-2492,-496,16936,-167,-88,-385
122397520,-2756,1364,15392,-229,263,-211
122401129,-2928,1844,15580,24,-132,32
122404512,-3400,-896,16648,-59,205,64
122407920,-3992,992,15856,-45,270,156
122411279,-2900,-580,16116,-287,272,-357
122414922,-3680,300,15916,-155,376,-187
122418479,-2792,2184,16224,-273,-25,-400
122422123,-2852,808,15124,-19,105,93
122425419,-4240,1316,15176,129,-293,73
122428889,-3212,-1068,16964,-65,38,-138
122432470,-3308,520,15188,-79,231,69
122435742,-2416,-124,16364,-182,31,-438
122439299,-2336,1608,15684,-144,276,18
122442769,-2968,1988,15552,-106,55,8
122446066,-3512,-584,16240,66,178,149
122449449,-4172,-232,16044,72,171,306
122452832,-3140,-716,17004,-231,56,-454
122456392,-2692,980,14900,-179,205,-117
122459994,-3136,1608,16216,79,-340,-72
122463416,-3340,-504,16480,-87,127,-4
122466799,-3708,1028,15040,34,9,155
122470009,-2720,-748,16500,-182,223,-444
122473652,-3208,704,15948,-290,338,-153
122477209,-2596,1732,15604,-273,290,-357
122480852,-2528,1024,15268,-101,175,-93
122484432,-2852,2676,15896,27,-171,122
122487879,-3648,-1264,16120,-76,161,-17
122491436,-4108,1064,15384,109,-130,136
122494993,-2556,-540,16788,-144,9,-375
122498497,-3108,640,15396,-287,207,-209
122502019,-2776,1636,15844,15,-36,-22
122505403,-2564,1376,15492,-114,224,22
122508897,-3808,1320,15860,21,197,171
122512256,-3092,-1028,16492,-44,275,3
122515639,-3848,188,15996,-131,222,-91
122519109,-2680,1656,16424,-225,156,-380
122522752,-2956,864,15180,-101,53,-15
122526136,-3868,1504,15268,127,-301,-20
122529692,-3344,-612,16720,-97,112,-23
122533187,-3560,92,15392,30,38,138
122536286,-2576,-452,16408,-240,141,-443
122539929,-2588,1464,15700,-143,212,-45
122543486,-2640,1756,15600,-99,206,-18
122546956,-3292,-264,15792,-66,108,-16
122550426,-4064,1592,15628,132,130,347
122553896,-3276,-1224,16784,-231,77,-388
122557600,-3760,452,15076,-73,78,-102
122560923,-2880,1340,16372,-136,-14,-382
122564566,-2716,1236,15656,-93,-32,-3
122567949,-3344,1324,15024,-5,46,67
122571159,-3608,-968,16716,0,96,-11
122574369,-3540,716,16128,-246,441,-99
122577839,-2308,1324,15688,-343,317,-376
122581486,-2888,1072,15240,-63,221,-96
122584976,-3600,2148,15664,-62,-122,-15
122588509,-3400,-724,15920,-22,98,55
122591806,-4060,336,15232,121,-38,147
122595189,-2480,-680,16768,-155,-80,-364
122598867,-2676,1288,15484,-259,381,-215
122602476,-2776,1588,15668,-15,-145,-35
122606033,-2500,1452,15656,-64,268,12
122609440,-3788,1504,15656,16,161,179
122612799,-3232,-1204,16676,4,203,42
122616096,-3932,228,16012,-161,278,-131
122619652,-2660,1800,16552,-88,-101,-107
122623296,-2836,876,15044,-60,117,41
122626592,-3764,1668,15212,162,-226,154
122630149,-3416,-744,16776,-19,134,19
122633557,-3480,100,15420,-226,240,-208
122637089,-2532,-416,16520,-184,128,-412
122640733,-2428,1444,15920,-313,382,-130
122644376,-2644,2012,15452,-105,131,-90
122647933,-2696,1140,15136,39,170,19
122651229,-4044,1584,15940,38,64,266
122654526,-3276,-1060,16960,-202,170,-391
122658304,-3660,364,15316,-117,72,-55
122661639,-2868,1392,16576,-172,-106,-362
122665370,-2836,1340,15396,-120,121,-25
122668926,-2924,1804,15420,31,-143,78
122672310,-3584,-932,16736,-44,310,-64
122675780,-4048,1076,16028,-67,255,109
122679249,-2904,-448,16028,-253,337,-296
122682916,-3616,312,15732,-192,273,-196
122686450,-2944,2364,16368,-8,-125,41
122689833,-3040,704,15252,-62,100,90
122693130,-4152,1088,15436,172,-172,138
122696686,-3436,-1068,16980,-90,148,-88
122700278,-3188,408,15420,-247,234,-267
122703800,-2220,412,16020,-159,97,-403
122707294,-2464,1204,15740,-103,154,51
122710740,-2836,2092,15576,-66,145,46
122714123,-3684,-724,16308,26,152,180
122717506,-4072,-432,16188,111,128,269
122720976,-3064,32,16992,-334,100,-477
122724446,-2812,772,15028,-120,90,-72
122727830,-3368,1720,16236,58,-204,-53
122731303,-3348,-716,16748,-89,-19,44
122734707,-3836,584,15272,21,123,111
122737979,-2492,-248,16420,-242,49,-446
122741536,-3028,864,15908,-240,352,-148
122745093,-2704,1996,15760,-148,103,-58
122748650,-2724,756,15124,-56,123,-22
122752033,-4224,1472,15816,114,140,361
122755503,-3656,-1676,16312,-112,58,-119
122759195,-3564,568,15044,-121,230,-87
122762616,-2464,-160,16616,-134,-115,-392
122766347,-2684,1428,15372,-255,195,-266
122769990,-3060,1888,15392,30,-77,122
122773373,-3672,-1160,16632,-49,134,34
122776843,-3844,1204,16088,-80,329,134
122780313,-2812,-592,16320,-99,168,-73
122783807,-3352,456,15624,-190,343,-242
122787340,-2912,2392,16104,-245,-9,-357
122790897,-3272,540,15388,19,70,109
122794107,-4036,1048,15208,103,-212,85
122797577,-3188,-1148,16936,-128,63,-163
122801255,-3228,400,15492,-33,225,5
122804430,-2124,392,16036,-209,9,-386
122807838,-2596,1276,15748,-85,268,3
122811110,-3824,1548,15740,-46,53,47
122814406,-3760,-872,16356,15,285,142
122817789,-3784,-220,16032,-194,270,-235
122821433,-2916,140,17104,-230,52,-370
122824903,-3072,436,15120,-63,79,23
122828113,-3756,1760,15040,96,-334,-62
122831586,-3428,-836,17000,-25,123,19
122834990,-3640,8,15592,-5,21,78
122837915,-2288,1708,15920,-63,-13,-145
122841472,-2580,1304,15640,-129,181,-23
122845029,-3480,1928,15532,-68,95,-11
122848412,-3380,-600,16112,-9,169,99
122851709,-4168,300,15960,-71,311,-44
122855092,-2644,1168,16416,-249,152,-404
122858784,-2888,1028,14880,-103,40,-41
122862205,-3152,1396,16356,51,-211,-119
122865762,-3404,-356,16548,-45,25,44
122869059,-3712,376,15476,50,87,139
122872268,-2908,-924,16500,-217,138,-382
122875912,-2592,1288,16028,-234,355,-116
122879555,-2344,1604,15756,-221,221,-189
122883222,-2668,1164,14912,-110,124,-88
122886756,-3984,1988,15584,169,58,344
122890139,-3156,-1004,16100,-81,78,-27
122893609,-3976,320,15272,-53,175,15
122896905,-2660,1008,16548,-173,-26,-387
122900549,-2724,1312,15276,-122,88,-112
122904140,-2576,1716,15804,-49,-23,-63
122907600,-3312,-448,16148,19,197,60
122910872,-3780,548,16300,6,284,190
122914082,-3140,-1016,16396,-270,273,-292
122917812,-3092,760,15316,-104,354,-106
122921369,-2564,1852,16288,-115,-173,-153
122925099,-3056,948,14916,-53,86,51
122928309,-3848,1604,15348,133,-170,170
122931890,-3412,-772,16784,-31,0,-24
122935162,-3456,252,15368,-226,309,-170
122938719,-2392,1468,15596,-250,44,-457
122942276,-2428,1480,15696,-130,307,-39
122945832,-2740,1880,15688,-118,81,-36
122949302,-3272,-360,16076,32,215,132
122952686,-4300,212,16336,83,92,348
122955895,-3412,-1160,17312,-226,146,-408
122959675,-2884,996,14712,-156,177,-117
122963182,-3040,1276,16404,35,-298,-146
122966739,-2640,1392,15304,-98,97,-28
122970122,-3516,1140,15044,68,-30,194
122973505,-2820,-944,16556,-52,290,-119
122977062,-3348,820,15948,-256,294,-101
122980619,-2448,1592,15860,-287,300,-364
122984286,-2960,1016,15400,-130,212,-102
122987906,-2700,2540,16012,3,-223,73
122991203,-3776,-1112,16220,-71,152,8
122994586,-3856,380,15388,124,-147,129
122998056,-2492,-652,16696,-147,12,-341
123001613,-3224,448,15536,-297,231,-253
123005204,-2844,1776,15940,44,-96,48
123008490,-3368,-828,16328,-112,274,25
123011936,-3900,1396,15672,-2,193,173
123015319,-3196,-1172,16440,-14,269,80
123018789,-3964,168,16144,-141,221,-191
123022346,-2648,2276,16188,-240,134,-421
123025989,-3112,716,15156,-33,-23,70
123029286,-3736,1524,15112,105,-276,-37
123032867,-3560,-996,16760,-71,61,-7
123036139,-3380,196,15288,-189,319,-210
123039696,-2300,-124,16416,-259,112,-486
123043339,-2524,1348,15712,-280,323,-153
123046983,-2724,2048,15532,-90,169,1
123050279,-3368,-636,16036,-40,83,31
123053576,-4328,1280,15896,151,173,323
123057148,-3160,-768,17072,-303,102,-472
123060689,-3292,708,14984,-82,111,-80
123064072,-3100,1544,16148,32,-259,-111
123067629,-2748,1220,15432,-65,-23,-4
123071013,-3488,1000,15172,-21,151,148
123074483,-3772,-1356,16816,-47,155,-121
123078126,-3208,764,15920,-71,361,58
123081426,-2624,-64,16020,-325,263,-361
123085003,-2668,1020,15204,-46,222,-72
123088449,-2952,2820,15944,1,-176,142
123091833,-3568,-1468,16360,-40,147,-40
123095389,-4240,928,15436,84,-18,119
123098686,-2484,-496,16752,-144,-99,-379
123102329,-3076,576,15232,-241,313,-223
123105925,-2804,1752,15612,-5,-141,2
123109207,-3436,-748,16500,-39,219,76
123112566,-4016,1044,15752,-60,201,126
123116036,-2932,-700,16156,-106,211,-51
123119593,-3728,208,15680,-163,317,-147
123123149,-2668,2300,16100,-284,5,-425
123126619,-2864,904,15120,-33,92,86
123129829,-3888,1256,15328,130,-139,194
123133410,-3564,-1184,17080,-18,76,-83
123136856,-3172,420,15484,-271,211,-200
123140412,-2224,72,15828,-184,65,-413
123143796,-2532,1392,15792,-131,198,-31
123147352,-2740,2248,15456,-42,55,68
123150649,-3556,-924,16096,-26,225,36
123154032,-3924,172,15920,64,78,260
123157290,-3288,-712,17168,-222,177,-415
123160886,-2792,1132,15012,-201,120,-188
123164529,-3148,1680,15980,75,-243,-5
123167912,-3420,-736,16800,-95,36,39
123171209,-3808,792,14952,40,110,139
123174505,-2488,-416,16316,-257,108,-497
123178149,-3332,700,16072,-268,330,-137
123181729,-2536,1904,15708,-158,183,-94
123185262,-2572,1372,15200,-75,76,-2
123188559,-4260,1260,15924,124,156,352
123192029,-3768,-1668,16472,-173,164,-194
123195759,-3520,648,14972,117,-78,141
123199142,-2500,-340,16640,-166,-45,-374
123202786,-2572,1520,15276,-309,188,-302
123206464,-3132,2008,15476,71,-40,143
123209837,-3404,-1228,16760,-67,199,33
123213283,-3812,1236,15700,-26,309,148
123216753,-3024,-868,16360,-48,183,46
123220136,-3296,96,15840,-260,336,-342
123223606,-2900,3044,15800,-248,44,-344
123227163,-3216,8,15396,12,-10,112
123230286,-3944,1516,15092,122,-52,167
123233780,-2584,-948,16820,-37,-39,-72
123237225,-3216,260,15580,-292,385,-275
123240782,-2096,592,15960,-233,4,-425
123244166,-2644,1044,15772,-62,226,38
123247549,-3784,1536,15752,-113,146,29
123251019,-3772,-992,16524,30,185,101
123254402,-3912,68,16020,-215,287,-187
123257920,-3112,-340,16900,-242,29,-425
123261429,-2860,820,14988,-46,104,67
123264725,-3348,1796,15916,80,-339,-6
123268109,-3424,-784,16928,-32,162,9
123271405,-3584,32,15484,-230,225,-198
123274875,-2408,-308,16152,-203,119,-450
123278519,-2696,1116,15796,-279,369,-104
123282185,-2656,2028,15736,-125,116,-78
123285719,-2544,1120,15000,-48,224,-24
123289194,-4324,1424,15984,103,52,346
123292572,-3288,-1000,16992,-72,188,-122
123296215,-3492,568,15112,-124,65,-100
123299686,-2432,-272,16568,-117,-97,-362
123303329,-2660,1384,15452,-288,286,-257
123307015,-2964,2032,15684,47,-114,129
123310443,-3588,-1044,16732,-20,252,73
123313913,-4052,852,15824,-46,258,132
123317296,-2900,-448,16208,-98,241,-85
123320766,-3388,488,15596,-170,221,-203
123324323,-2868,2328,16060,-214,-8,-368
123327879,-3048,788,15392,-42,73,89
123331089,-4028,1136,15212,145,-96,168
123334584,-3412,-1188,17168,-90,136,-138
123338203,-3032,480,15276,-105,141,-21
123341673,-2220,356,15848,-149,73,-363
123345143,-2416,1316,15728,-108,142,13
123348613,-2780,2164,15540,-39,136,47
123351996,-3752,-1060,16340,5,120,159
123355379,-3812,-80,15944,78,148,237
123358724,-2980,-208,16920,-289,53,-422
123362232,-2968,868,15136,-138,63,-119
123365702,-3200,1772,16120,48,-218,-18
123369172,-3488,-916,16920,-62,-22,67
123372556,-3812,676,15192,-8,202,100
123375852,-2436,-416,16252,-194,27,-464
123379409,-3268,936,16132,-244,411,-143
123382990,-2520,1760,15716,-126,85,-45
123386436,-2628,768,15200,-36,144,-40
123389819,-4068,1756,15848,69,103,346
123393202,-3456,-1376,17148,-14,56,-40
123396672,-3504,616,15120,-160,212,-150
123400229,-3120,1344,16488,-117,-174,-361
123403959,-2744,1260,15488,-111,142,-42
123407557,-3024,1868,15572,29,-92,94
123410812,-3664,-1064,16656,-17,228,-66
123414369,-3936,900,15904,-85,352,144
123417752,-2796,-376,16288,-306,284,-368
123421396,-3440,304,15688,-150,366,-206
123424953,-2864,2432,16020,-259,-22,-387
123428596,-3104,784,14984,22,89,100
123431830,-3976,1020,15284,135,-132,151
123435362,-3432,-1280,17064,-82,61,-119
123438919,-2976,360,15288,-85,260,35
123442216,-2132,412,15812,-192,-14,-408
123445773,-2508,1296,15640,-85,244,51
123449156,-2844,1996,15468,-80,67,22
123452452,-3684,-728,16388,23,258,112
123455836,-3900,-156,16188,58,154,261
123459267,-2872,104,16788,-279,94,-462
123462689,-3048,680,15056,15,-35,80
123465899,-3680,1860,15056,73,-263,-96
123469369,-3492,-900,16840,-40,84,41
123472665,-3444,120,15352,-233,306,-214
123476222,-2392,-208,16256,-207,127,-453
123479865,-2604,1292,15804,-304,341,-169
123483533,-2676,1964,15432,-65,145,-9
123486892,-3356,-600,16128,-70,141,-15
123490362,-4228,1452,15920,143,95,344
123493745,-3108,-1224,16892,-121,196,-132
123497476,-3588,548,15140,-123,74,-139
123500946,-2348,-28,16572,-107,-54,-352
123504502,-2808,1140,15488,-87,-22,-30
123508014,-3068,1744,15584,49,-27,86
123511269,-3520,-1044,16692,-16,139,-83
123514826,-3492,588,16256,-37,298,149
123518209,-3072,-576,16132,-333,331,-355
123521852,-3252,160,15832,-235,245,-316
123525409,-3004,2720,15784,19,-72,121
123528792,-3544,-1376,16348,-7,-43,85
123532200,-3952,1328,15144,116,-23,138
123535646,-2464,-832,16664,-105,65,-164
123539202,-3152,580,15176,-204,259,-242
123542759,-2840,1640,15736,-196,64,-406
123546316,-2640,1184,15716,-97,173,8
123549612,-3720,1288,15648,-56,192,74
123552996,-3584,-932,16252,9,108,66
123556209,-3756,208,15924,-182,378,-199
123559823,-2932,-300,16728,-270,58,-421
123563319,-2976,964,15096,-19,89,51
123566529,-3828,1492,15244,55,-273,-2
123569912,-3608,-992,16884,-11,60,-11
123573295,-3392,336,15224,-214,243,-167
123576852,-2404,-452,16160,-199,30,-429
123580408,-2616,1588,15792,-182,282,-22
123583990,-2608,1996,15392,-105,62,-46
123587435,-3480,-476,16072,15,163,38
123590732,-4104,1484,15780,90,69,311
123594028,-3336,-1048,16948,-231,167,-396
123597759,-3564,428,15172,-166,145,-150
123601315,-3008,1656,16456,79,-295,-24
123604785,-2792,1136,15428,-84,106,29
123608210,-3548,1236,14872,14,7,167
123611378,-2752,-956,16592,-12,261,-87
123614848,-3260,896,15948,-287,332,-174
123618405,-2404,1544,15692,-261,308,-343
123622049,-2492,1176,15268,-102,130,-135
123625692,-3092,2744,15984,43,-186,136
123629162,-3644,-1420,16268,-97,184,-29
123632743,-3964,1236,15208,99,-119,125
123636189,-2492,-684,16736,-112,12,-371
123639746,-2988,512,15316,-296,242,-278
123643302,-2916,1872,15612,-143,-49,-350
123646946,-2772,1064,15780,-95,213,50
123650329,-3968,1056,15716,-25,65,104
123653712,-3784,-1160,16540,-42,272,-10
123657318,-3684,312,15856,13,132,197
123660566,-2860,-228,16820,-248,125,-405
123664209,-3004,992,14820,-178,124,-187
123667766,-3204,1956,16096,144,-326,101
123671323,-3464,-1148,16836,-62,119,71
123674793,-3888,496,15108,-38,94,42
123678002,-2300,16,16084,-186,122,-420
123681476,-3152,1076,15860,-272,326,-161
123685140,-2572,2112,15476,-256,251,-316
123688759,-2700,760,15300,-24,127,33
123692056,-4292,1228,16196,67,-143,238
123695526,-3616,-1656,16520,-165,180,-155
123699256,-3176,764,15068,70,-19,37
123702466,-2300,284,16556,-116,-59,-357
123706023,-2648,1140,15304,-259,158,-237
123709708,-3316,1944,15352,137,-45,190
123713136,-3512,-1484,17104,-69,238,44
123716606,-4056,836,16156,-88,360,76
123719903,-2764,-288,15988,-299,275,-357
123723546,-3076,600,15672,-196,194,-281
123727103,-3036,2680,15760,-213,70,-286
123730660,-3192,312,15208,36,-61,145
123733981,-4244,808,15568,186,-228,158
123737426,-3268,-1276,16912,-193,84,-247
123741070,-2996,800,14956,-68,176,-27
123744453,-2248,816,16048,-188,-7,-328
123747923,-2688,1076,15592,-244,292,-109
123751566,-3116,1944,15404,-3,152,184
123754950,-3648,-1184,16740,-7,120,67
123758381,-4584,516,16424,1,310,146
123761543,-2652,312,16512,-273,-16,-396
123765099,-2784,1152,14764,-78,103,-114
123768656,-3416,1852,15828,105,-271,125
123772213,-3080,348,15816,-28,-1,46
123775422,-3784,464,15224,-105,212,1
123778719,-2332,380,15960,-158,20,-371
123782214,-2688,1196,16028,-297,395,-207
123785833,-3044,2268,15312,-266,146,-273
123789476,-2836,392,15352,48,241,97
123792686,-4420,908,16216,16,127,230
123795982,-3600,-1692,16556,-131,214,-216
123799713,-3084,756,14880,-3,71,22
123802836,-3300,1820,16184,-60,-189,-286
123806482,-3044,944,15632,-41,35,64
123809731,-3868,348,15208,84,-107,233
123813072,-3360,-1360,17052,-186,306,-318
123816802,-2860,1124,15840,-182,282,-17
123820359,-2468,552,15828,-279,319,-330
123823916,-3032,912,15460,-203,157,-263
123827472,-3404,2640,15656,159,-89,348
123830942,-3532,-544,15612,-19,128,137
123834437,-4336,652,15508,76,-9,72
123837536,-2400,220,16628,-131,-118,-353
123841179,-2720,1196,15108,-249,144,-248
123844823,-2340,1516,15692,-21,-46,-159
123848379,-2828,360,15860,-22,175,51
123851676,-4024,596,16152,43,211,212
123854972,-3644,-1392,16648,-203,248,-203
123858751,-4264,72,16352,-68,234,-30
123861999,-2808,1436,16560,-185,-11,-257
123865643,-3288,84,15340,-86,2,-41
123868765,-3596,1936,15256,142,-176,179
123872322,-3020,-1232,17060,-118,8,-281
123875879,-3656,60,15380,-124,278,-56
123879262,-2340,1000,15848,-125,-75,-274
123882930,-2624,1384,15924,-174,282,-71
123886462,-3160,2056,15328,-160,237,-126
123890106,-3196,-48,15784,34,125,111
123893403,-4448,196,16408,150,105,400
123896786,-3388,-1556,16976,-242,113,-436
123900516,-2788,1220,14932,-68,131,-93
123903986,-2936,1044,16540,-17,-265,-147
123907653,-2628,1360,15372,-155,21,-85
123911135,-3436,1480,15084,21,70,196
123914396,-3180,-1400,16748,17,141,-8
123917779,-3544,700,16176,-275,464,-139
123921336,-2380,1260,15684,-307,287,-360
123924980,-2816,920,15100,-61,203,-159
123928450,-3608,2556,15564,-62,-103,-38
123932031,-3524,-912,16140,15,96,72
123935216,-4104,352,15580,-78,93,-37
123938513,-2564,-708,16816,-151,-80,-340
123942156,-2412,1420,15308,-208,149,-200
123945800,-2708,1648,15644,-44,-129,-65
123949356,-3204,-324,16100,-70,235,14
123952740,-3784,1452,15608,-7,149,195
123956123,-3420,-1208,16416,-239,360,-303
123959903,-4004,120,16192,-152,273,-100
123963410,-3088,-600,16904,-237,54,-402
123966967,-2864,860,14984,-84,80,37
123970176,-3784,1732,15144,78,-326,-23
123973646,-3636,-748,16808,-22,131,22
123977030,-3456,160,15508,-248,256,-203
123980586,-2360,-296,16088,-199,146,-485
123984254,-2616,1440,15924,-299,392,-172
123987873,-2596,1912,15672,-125,115,-29
123991430,-2660,1116,15024,-37,192,-10
123994900,-4104,1480,15952,102,41,341
123998283,-3576,-1584,16520,-67,182,-114
124001927,-3276,596,15008,-166,76,-188
124005397,-2452,76,16632,-93,-136,-337
124008890,-2732,1264,15372,-123,36,-29
124012372,-3180,1788,15572,77,-102,117
124015807,-3524,-1204,16804,-74,241,-133
124019450,-3840,760,16028,-89,242,79
124022747,-2676,-368,16144,-287,391,-377
124026390,-3352,420,15604,-170,217,-242
124029947,-2900,2696,16036,-201,13,-351
124033528,-3188,608,15268,-16,16,136
124036800,-4128,804,15380,130,-63,127
124040184,-3324,-1184,17176,-152,138,-191
124043914,-2916,724,15216,-127,171,0
124047210,-2244,620,16020,-124,94,-350
124050680,-2612,1204,15500,-53,141,72
124054064,-4016,972,15868,40,141,196
124057462,-3828,-1348,16576,-116,185,-99
124061004,-3640,332,15876,29,217,169
124064300,-2920,208,16924,-245,7,-397
124067683,-2932,684,15164,-26,59,97
124070893,-4096,1400,15132,124,-239,85
124074363,-3592,-1300,17176,-70,54,-61
124077833,-3220,380,15340,-66,260,42
124081133,-2260,176,16260,-182,4,-405
124084537,-2464,1396,15648,-119,281,70
124087983,-2940,2120,15328,-39,61,102
124091366,-3888,-1136,16464,29,223,18
124094749,-3856,216,15940,-5,206,197
124098046,-3056,-524,17020,-199,73,-419
124101603,-2972,1124,14984,-84,19,15
124104899,-3860,1616,15348,127,-349,27
124108392,-3588,-1008,16936,-87,119,-40
124111929,-3924,704,15324,-60,63,65
124115174,-2328,-356,16540,-204,150,-422
124118779,-2600,1408,15732,-288,364,-182
124122423,-2668,1936,15452,-41,128,-11
124125893,-2632,1064,15296,-33,147,11
124129276,-4180,1424,16044,119,142,320
124132770,-3180,-980,17036,-112,145,-104
124136389,-3384,388,15040,-132,128,-146
124139946,-2552,116,16796,-97,-91,-340
124143416,-2724,1264,15472,-74,9,24
124146626,-3700,860,15088,75,-33,128
124149922,-3600,-1276,16852,-70,178,-123
124153566,-3200,728,15884,-101,314,70
124156997,-2736,-136,16044,-346,336,-379
124160593,-2668,908,15120,-159,184,-216
124164149,-2948,2596,15740,9,-35,91
124167359,-3704,-1188,16460,-41,26,8
124170656,-3772,336,15220,117,26,137
124173952,-2360,-104,16776,-136,-161,-363
124177682,-2944,672,15020,-224,240,-204
124181243,-3048,1832,15584,25,-105,49
124184647,-3428,-864,16812,-46,193,70
124188006,-4076,832,15868,-66,305,157
124191389,-2988,-424,16256,-96,211,-103
124194946,-3516,432,15716,-189,346,-169
124198502,-2988,2348,15920,-260,-43,-403
124202146,-3020,892,15124,28,78,138
124205356,-4116,1036,15396,164,-303,89
124208849,-3452,-1196,17076,-106,117,-129
124212556,-2988,336,15176,-74,223,-2
124215887,-2240,524,16104,-170,0,-405
124219236,-2576,1180,15736,-116,212,38
124222706,-3020,2244,15352,-32,18,134
124226089,-3780,-1228,16484,-39,277,-24
124229646,-4592,808,16248,22,139,197
124232966,-2888,-208,16960,-188,85,-400
124236499,-2964,784,14756,-245,138,-186
124240055,-3248,2096,15816,199,-343,100
124243612,-3052,532,15812,-38,138,118
124246996,-3916,432,15192,-16,82,85
124250205,-2076,204,16200,-144,287,-316
124253762,-2940,1016,15844,-278,328,-176
124257454,-2416,712,15840,-241,278,-307
124260962,-2588,828,15200,-23,123,46
124264259,-4360,964,16024,113,-125,272
124267729,-3524,-1592,16812,-130,150,-159
124271459,-4404,260,15356,-6,9,26
124274495,-2696,464,16636,-33,-157,-324
124278052,-2852,888,15676,-67,35,32
124281265,-3864,904,14952,59,-2,155
124284496,-3640,-1444,16992,-92,174,-126
124288115,-3152,832,16124,-106,357,7
124291411,-2436,560,15904,-306,256,-355
124294968,-2540,824,15088,-10,191,22
124298265,-4296,1648,15732,43,-95,184
124301648,-3420,-1552,16612,-55,101,-53
124305205,-3580,308,15112,52,52,101
124308438,-2400,84,16684,-94,-206,-381
124311885,-2848,1012,15512,-131,131,10
124315355,-2948,1936,15436,53,-79,78
124318686,-3676,-1384,16956,-28,278,-72
124322208,-4076,700,16040,-134,314,74
124325591,-2696,-88,16012,-275,279,-369
124329148,-2540,1036,15068,-221,317,-236
124332816,-2872,2536,15800,61,-187,140
124336261,-3172,488,15216,-21,138,121
124339645,-4212,908,15536,128,-135,165
124343115,-3156,-1248,17048,-138,162,-230
124346845,-2948,584,15428,-259,168,-219
124350401,-2180,784,15844,-147,8,-330
124353785,-2548,976,15460,-39,172,85
124357130,-3208,1944,15384,1,71,142
124360291,-3616,-1144,16352,-135,289,-56
124363935,-3712,132,15712,58,134,181
124367231,-2768,280,16936,-275,121,-431
124370788,-3092,868,15060,-154,53,-137
124374258,-3480,1812,15600,167,-242,100
124377815,-3404,-1112,17088,-28,90,96
124381201,-3940,348,15276,-62,186,23
124384519,-2188,308,16044,-202,94,-388
124387964,-2696,1212,15928,-241,266,-171
124391608,-3064,2196,15296,-28,168,114
124395078,-2848,560,15316,25,75,110
124398288,-4552,764,16156,70,267,218
124401584,-2768,-184,16828,-274,3,-457
124405054,-2976,1020,14976,-95,128,-120
124408634,-3352,1756,15844,82,-317,33
124411994,-3036,852,15924,-16,-28,96
124415290,-3652,432,15156,-88,198,50
124418590,-2248,92,15988,-200,28,-443
124422005,-2916,968,16088,-271,441,-178
124425527,-2852,2208,15524,-86,52,72
124428824,-3496,-836,16276,38,175,70
124432145,-4416,1148,16068,44,114,279
124435503,-3268,-792,17044,-188,117,-405
124439147,-3176,636,15164,-238,182,-200
124442704,-3300,1736,16120,-66,-216,-339
124446347,-2824,1040,15620,-76,69,56
124449644,-3648,872,15260,21,-81,95
124452853,-3732,-1100,16752,-50,277,-136
124456500,-3120,516,15976,-138,287,68
124459929,-2432,388,15968,-274,374,-393
124463437,-2680,760,15124,-39,87,22
124466647,-4176,1684,15728,56,-132,137
124470117,-3588,-1352,16488,-77,73,-17
124473587,-3504,260,15156,71,-24,87
124476796,-2456,4,16456,-139,-63,-403
124480180,-2596,1320,15516,-70,-29,48
124483587,-3620,1152,15064,50,-1,105
124486859,-3580,-1232,16828,-28,166,-98
124490416,-3368,692,15916,-55,332,110
124493799,-2788,-272,16092,-333,253,-373
124497443,-2620,1000,15048,-174,258,-267
124501086,-2936,2592,15912,-2,-128,121
124504556,-3656,-1132,16124,45,-36,173
124508050,-4224,692,15496,71,10,131
124511236,-2356,-288,16696,-109,-107,-368
124514966,-2856,572,15200,-259,317,-217
124518523,-3096,1816,15552,-142,-99,-339
124522202,-2632,928,15712,-19,242,94
124525463,-3868,1300,15784,-67,137,85
124528846,-3960,-1192,16632,10,177,80
124532254,-3364,244,15780,-59,333,67
124535526,-2580,860,16416,-226,-43,-341
124539083,-3000,436,15212,-12,104,76
124542379,-4144,1124,15152,129,-327,73
124545849,-3380,-1340,17184,-53,81,-93
124549319,-2928,464,15104,-146,241,-37
124552789,-2164,656,16004,-107,-11,-351
124556350,-2564,1124,15888,-300,395,-136
124560050,-2876,1944,15448,-64,108,33
124563373,-3916,-848,16456,44,187,112
124566756,-4592,76,16388,27,163,158
124569966,-2732,540,16732,-303,105,-427
124573523,-2844,960,14920,-121,51,-96
124576906,-3340,1984,15816,126,-212,50
124580376,-3052,836,15820,-55,20,118
124583697,-3908,332,15184,-68,140,8
124586882,-2256,140,16224,-204,36,-405
124590352,-2916,1044,15868,-272,321,-164
124593996,-2804,2116,15384,-87,186,53
124597379,-2684,744,15192,0,52,23
124600415,-4344,1124,16056,86,194,280
124603798,-2996,-764,16768,-276,42,-435
124607378,-3084,764,14960,-149,149,-189
124610912,-3248,1800,16248,80,-319,55
124614295,-2884,732,15708,-37,7,55
124617418,-3688,960,14976,-88,172,101
124620801,-2540,-548,16556,-200,93,-438
124624393,-3040,960,16008,-336,454,-225
124627915,-2636,2092,15524,-273,217,-326
124631562,-2808,724,15260,-18,227,-17
124634966,-4208,1436,15860,18,-136,221
124638412,-3644,-1752,16720,-52,128,-117
124642055,-3356,572,15068,16,73,97
124645178,-2548,116,16612,-72,-193,-334
124648735,-2652,1292,15528,-119,53,24
124652118,-3184,1676,15304,67,-93,141
124655501,-3660,-1244,16668,-58,272,-114
124659193,-3928,560,16208,-125,276,16
124662528,-2704,92,15940,-295,360,-359
124665998,-2628,848,15120,-202,202,-248
124669555,-2792,2796,15872,69,-100,129
124673025,-3104,328,15196,51,30,179
124676235,-4288,632,15460,86,-26,131
124679531,-2456,-72,16832,-113,-124,-385
124683199,-2824,788,15488,-255,208,-249
124686731,-3056,1824,15592,-91,46,-268
124690201,-2632,944,15708,-60,134,71
124693498,-4012,1020,15872,-33,367,128
124696968,-4096,-1344,16564,-95,172,-37
124700524,-3108,148,15860,-212,304,-343
124704081,-2660,1184,16548,-235,8,-352
124707575,-3128,208,15264,69,-49,141
124710848,-4144,1224,15136,91,-167,65
124714231,-3352,-1408,17176,-82,-35,-154
124717875,-3980,224,15296,-115,313,-68
124721345,-2352,652,15856,-141,-81,-328
124724936,-2720,1316,16084,-253,364,-181
124728545,-3232,2044,15372,-25,124,131
124732039,-2808,220,15544,47,91,94
124735138,-4628,852,16348,6,281,169
124738347,-2840,-120,16856,-271,-3,-423
124741904,-2856,852,14840,-159,162,-178
124745461,-3516,1976,15892,131,-345,124
124749018,-3160,324,15876,-7,115,46
124752228,-3812,604,15156,-100,109,22
124755611,-2376,224,16120,-141,155,-267
124759216,-2824,1144,15832,-332,371,-211
124762811,-2404,1116,15808,-254,152,-256
124766455,-2664,556,15360,-87,239,-173
124769925,-3484,2652,15556,94,-138,292
124773395,-3592,-1844,16764,-148,217,-215
124777125,-4344,412,15512,-24,79,11
124780335,-2576,500,16648,-25,-216,-238
124783916,-2520,1204,15188,-268,270,-223
124787535,-3372,1812,15300,-12,-152,-116
124791178,-2936,112,16152,7,268,77
124794301,-3964,528,16220,-191,307,-43
124797771,-3612,-1288,16588,-197,357,-281
124801502,-2988,748,15272,-130,304,-73
124804972,-2696,1428,16440,-148,-69,-226
124808638,-2828,1260,14924,-63,118,8
124811911,-3668,1636,15144,159,-232,147
124815468,-2848,-1168,17124,5,103,4
124818678,-3488,216,15264,-212,215,-118
124822235,-2472,1324,15856,-61,-15,-190
124825827,-2580,1540,15928,-202,232,-98
124829348,-3508,1632,15480,-83,54,12
124832669,-3448,-500,16064,-25,285,92
124836028,-4400,72,16428,-46,213,-2
124839238,-2600,1424,16468,-279,220,-444
124842881,-2760,1348,14796,-63,-55,18
124846265,-3572,1796,15236,89,-213,-7
124849648,-3500,-352,16496,-37,-16,54
124853031,-3592,-32,15252,-155,307,-89
124856505,-2732,-816,16612,-235,186,-441
124860193,-2612,1404,15776,-258,331,-113
124863788,-2412,1348,15816,-210,254,-220
124867432,-2616,1300,15228,-114,95,-123
124870988,-3984,1584,15740,201,62,442
124874372,-3788,-1728,16460,-137,143,-119
124878102,-3616,656,14908,69,-59,99
124881315,-2936,960,16492,-120,-41,-364
124884893,-2408,1540,15400,-133,25,-48
124888338,-3120,1776,15516,48,-8,122
124891640,-3440,-812,16616,0,153,-82
124894931,-3520,512,15848,-256,449,-131
124898488,-3052,-712,16016,-318,298,-367
124902132,-2780,1048,15464,-151,190,-208
124905775,-2704,2544,15992,-71,-96,-5
124909182,-3688,-1044,15984,37,-90,128
124912628,-4056,1064,15276,141,-30,210
124916098,-2544,-520,16876,-150,43,-146
124919655,-2992,484,15236,-255,330,-237
124923212,-2232,348,16168,-166,0,-382
124926630,-2468,1244,15720,-108,236,20
124930065,-3808,1448,15688,-69,174,32
124933473,-3836,-820,16380,21,146,107
124936832,-3612,-204,16164,-231,359,-277
124940475,-2692,288,16576,-277,-16,-436
124944032,-2900,680,15036,-44,127,-88
124947415,-3252,1900,16024,41,-310,18
124950798,-3412,-1184,17084,24,133,-9
124954181,-3952,292,15080,-73,157,2
124957441,-2352,196,16176,-174,73,-378
124960861,-2520,1240,15708,-275,438,-162
124964505,-2804,1960,15380,-87,71,-9
124967801,-3516,-540,16232,-2,195,47
124971098,-4548,568,16184,97,111,274
124974394,-2804,-232,16956,-292,130,-462
124978038,-3036,948,14840,-145,99,-82
124981425,-3208,1632,16024,87,-227,-35
124984916,-3412,-700,16788,-81,43,47
124988188,-3780,480,15144,26,71,138
124991397,-2372,-116,16324,-289,113,-479
124995041,-3132,996,15968,-248,310,-106
124998598,-2672,1964,15492,-112,192,-60
125002154,-2696,1176,15252,-23,55,-14
125005538,-4384,1320,16052,137,158,345
125009031,-3720,-1672,16468,-145,153,-179
125012738,-3504,608,14988,113,-16,101
125016121,-2544,-120,16804,-139,-91,-321
125019765,-2780,1300,15492,-284,190,-270
125023408,-3308,1812,15388,83,34,153
125026740,-3676,-1164,16904,-41,125,82
125030175,-3932,1016,16024,-77,358,111
125033669,-2892,-620,16140,-71,225,-69
125037115,-3244,416,15864,-212,266,-270
125040671,-3016,2740,15688,-238,38,-324
125044228,-3208,156,15260,45,-51,76
125047438,-4120,1156,15160,106,-8,149
125050821,-3348,-1456,17208,-96,-23,-206
125054465,-2836,768,15212,-256,307,-243
125058124,-2292,684,15824,-144,-2,-331
125061491,-2548,1208,15636,-247,289,-173
125065135,-2924,2076,15300,-39,144,137
125068605,-3772,-1248,16572,-5,107,93
125071988,-4464,576,16328,27,313,218
125075285,-2788,188,16880,-264,-12,-435
125078841,-3000,948,14916,-136,145,-155
125082423,-3436,1916,15852,-42,-186,-220
125086042,-2932,692,15812,0,28,79
125089078,-3808,328,15272,-103,203,47
125092461,-2220,160,15920,-147,167,-314
125096018,-2824,1104,16036,-247,411,-172
125099661,-2412,736,15948,-290,194,-277
125103218,-2672,692,15264,33,199,47
125106431,-4464,880,15968,89,-94,306
125109748,-3624,-1780,16740,-110,106,-228
125113455,-3064,788,14940,35,175,60
125116664,-2636,368,16652,-68,-255,-325
125120221,-2972,1008,15692,-35,104,98
125123604,-3312,1852,15172,63,-87,168
125127027,-3580,-1516,17076,-74,264,-150
125130631,-3844,948,15964,-137,339,63
125134039,-2840,-304,15936,-286,305,-390
125137658,-2968,704,15736,-234,284,-350
125141215,-3276,2668,15580,106,-127,264
125144771,-3272,-156,15368,57,123,93
125148068,-4344,856,15280,86,-48,137
125151364,-2552,-136,16760,-97,104,-232
125154921,-2620,872,15096,-290,204,-245
125158526,-2328,976,15904,-76,-16,-271
125161948,-2704,920,15832,-83,168,87
125165244,-3972,840,15840,22,125,163
125168541,-3980,-1288,16692,-107,225,-94
125172184,-3328,372,15756,-31,233,116
125175568,-2740,420,16664,-247,116,-384
125179124,-2996,780,15260,-182,77,-121
125182619,-3432,1900,15612,154,-193,93
125186064,-3400,-1060,17248,-75,-7,-119
125189621,-3808,224,15340,-56,189,40
125192918,-2220,476,15980,-193,11,-401
125196387,-2880,1124,16032,-246,298,-172
125200031,-2956,2176,15552,-53,138,140
125203501,-2664,560,15116,24,97,76
125206647,-4496,1036,16088,46,230,248
125210007,-2960,-448,16996,-270,32,-451
125213564,-3084,988,14732,-132,159,-162
125217121,-3200,1608,15904,-58,-238,-256
125220764,-2952,1068,15796,-15,75,71
125224061,-3824,624,14928,48,20,173
125227306,-3496,-1320,16948,-67,154,-203
125230914,-3032,748,16080,-326,397,-221
125234495,-2388,712,15688,-297,203,-361
125238028,-2524,724,14976,-79,249,-208
125241498,-3280,2544,15788,27,-153,178
125244968,-3720,-1612,16612,39,31,147
125248351,-4256,332,15508,13,43,15
125251474,-2412,296,16612,-72,-151,-319
125255031,-2696,1076,15644,-268,268,-236
125258722,-3188,2036,15160,41,-72,144
125262057,-3660,-1488,17028,52,229,118
125265527,-4060,708,16212,-118,291,68
125268911,-2700,-56,15920,-96,297,-166
125272381,-3324,252,15776,-189,204,-232
125275937,-2936,2640,15892,-227,-9,-328
125279494,-3196,496,15100,22,4,143
125282642,-4332,812,15276,141,-34,164
125286000,-2368,-336,16588,-152,81,-272
125289557,-2956,660,15320,-210,187,-203
125293114,-2240,728,15824,-161,79,-328
125296584,-2548,1180,15628,-63,127,54
125299967,-3832,1320,15780,-47,163,85
125303350,-3888,-1160,16464,-10,139,86
125306844,-3696,-64,15996,34,226,135
125310117,-2708,668,16580,-302,21,-402
125313587,-3084,416,15148,65,-29,120
125316883,-3856,1564,15124,46,-155,-11
125320353,-3464,-1072,16920,-16,-39,-21
125323910,-3256,192,15564,-33,243,18
125327210,-2296,280,15968,-221,14,-421
125330712,-2456,1124,15656,-190,368,-138
125334345,-2696,1936,15512,-175,84,-46
125337790,-3672,-424,16308,19,78,102
125341087,-4576,624,16208,36,199,243
125344383,-3048,-364,17120,-265,67,-439
125347940,-3168,652,14992,-120,145,-78
125351410,-3216,1496,16224,24,-248,-104
125354967,-2712,1364,15564,-38,65,71
125358312,-3900,628,15012,-7,78,137
125361473,-2388,-320,16320,-222,156,-443
125365116,-3456,904,15932,-259,328,-82
125368586,-2348,1544,15724,-313,310,-393
125372230,-2552,1584,15012,-81,168,-50
125375700,-4268,1368,15836,96,-204,221
125379170,-3780,-1564,16492,-126,212,-129
125382924,-4108,1076,15212,54,-37,132
125386283,-2468,-428,16604,-95,-42,-378
125389840,-2856,1032,15152,-300,250,-234
125393484,-3052,1648,15580,-136,-56,-316
125397127,-2532,1204,15500,-89,202,35
125400510,-3920,988,15824,11,80,192
125403720,-3776,-1380,16524,-85,308,-83
125407300,-3572,324,15668,-159,193,-170
125410834,-2828,152,16724,-225,110,-392
125414390,-2996,916,15244,-197,117,-179
125417947,-3396,2028,15632,153,-306,102
125421504,-3456,-1272,17108,-61,114,69
125424974,-3760,664,15108,-41,120,60
125428270,-2396,-64,15996,-198,132,-367
125431870,-2868,984,16076,-302,346,-218
125435384,-2728,2124,15416,-239,228,-272
125439027,-2840,644,15260,-27,134,53
125442324,-4172,1208,16036,68,-80,238
125445707,-3676,-1676,16592,-155,148,-177
125449437,-3244,720,15020,36,16,56
125452560,-2616,320,16604,-73,-117,-324
125456121,-2840,904,15340,-47,28,60
125459375,-3804,876,15056,70,-19,120
125462623,-3488,-1288,16920,-52,128,-139
125466267,-3248,820,15884,-113,345,68
125469650,-2584,72,15792,-319,265,-384
125473120,-2648,796,15396,-16,157,-33
125476503,-3096,2612,15756,14,-41,116
125479887,-3704,-1300,16344,-30,79,-25
125483381,-3484,348,15076,64,132,59
125486566,-2648,44,16740,-125,-189,-317
125490123,-2612,1096,15652,-240,292,-216
125493767,-3000,2020,15348,28,-121,56
125497150,-3692,-1132,16840,-14,179,88
125500620,-4004,828,16088,-104,304,85
125504003,-2940,-352,16044,-282,344,-353
125507671,-3444,368,15664,-162,287,-178
125511203,-2804,2400,15868,-253,-5,-397
125514760,-3148,740,15088,35,38,132
125517970,-3956,1132,15304,85,-107,125
125521440,-3324,-1112,17132,-36,32,-96
125524910,-2892,600,15304,-297,247,-247
125528466,-2160,556,15928,-132,-45,-336
125532065,-2620,1284,15760,-239,410,-171
125535667,-2904,2212,15336,-48,58,88
125538963,-3816,-1176,16320,-8,275,18
125542347,-4540,820,16328,31,144,200
125545643,-2852,-300,16904,-246,128,-436
125549287,-2940,864,14804,-165,124,-163
125552843,-3312,1964,15876,106,-253,46
125556317,-2944,764,15780,-28,74,89
125559584,-3780,532,15096,-71,141,59
125562820,-2344,-204,16072,-205,103,-411
125566463,-3000,856,16156,-326,338,-203
125570020,-2612,2204,15536,-250,272,-325
125573663,-2656,804,15108,-32,104,4
125576873,-4152,1304,15984,76,-112,228
125580343,-3748,-1692,16624,-120,130,-128
125584098,-4292,568,15408,24,1,36
125587110,-2596,208,16704,-74,-91,-307
125590580,-2828,1016,15512,-79,11,13
125593876,-3484,1024,14976,31,10,104
125597173,-3552,-1212,16876,-46,139,-123
125600816,-3224,732,15984,-89,361,55
125604113,-2576,172,15996,-321,272,-369
125607694,-2712,916,15184,-30,172,-20
125611053,-3028,2696,15808,22,-94,154
125614436,-3624,-1528,16368,-35,75,-55
125617906,-3648,508,15144,84,54,108
125621116,-2384,-236,16732,-128,-176,-358
125624846,-2752,1428,15496,-255,310,-257
125628489,-3096,1832,15368,27,-115,102
125631983,-2468,684,15536,11,182,63
125635204,-3992,1208,15900,-95,275,136
125638639,-3124,-1040,16256,-244,344,-390
125642369,-3336,48,15960,-292,338,-357
125645839,-2756,2832,15724,-240,-33,-347
125649483,-3268,268,15360,51,65,138
125652693,-3992,1604,15320,43,-268,38
125656079,-3424,-1324,17120,-21,72,-72
125659594,-3180,456,15296,-301,272,-303
125663103,-2212,464,16132,-129,-2,-333
125666573,-2696,1152,15572,-162,234,-12
125670129,-2836,2136,15204,-46,48,71
125673426,-3752,-992,16472,-9,243,28
125676722,-3868,144,16104,24,178,224
125680019,-2852,-288,16732,-240,118,-396
125683687,-2936,884,14928,-175,131,-124
125687219,-3472,1804,16048,101,-274,30
125690689,-3436,-908,17056,-65,98,71
125693986,-3816,580,15156,-35,111,82
125697282,-2452,-140,16332,-186,112,-410
125700926,-3060,916,15944,-313,342,-163
125704482,-2736,1960,15604,-257,253,-322
125708150,-2512,788,15100,-35,125,-4
125711422,-4256,1460,15960,109,165,288
125714892,-3516,-1372,16480,-86,110,-82
125718449,-3340,432,15180,62,-31,81
125721659,-2444,332,16616,-105,-61,-350
125725215,-2796,984,15540,-69,-2,-6
125728425,-3552,1084,14876,32,48,108
125731745,-3728,-1264,17016,-14,116,-75
125735314,-3380,528,16064,-293,499,-144
125738835,-2792,-396,15988,-316,250,-415
125742479,-2708,1264,15140,-213,241,-313
125746122,-3040,2660,15860,14,-104,174
125749592,-3228,132,15256,29,-59,97
125752802,-4184,1032,15376,102,16,153
125756189,-2392,-656,16832,-154,-107,-420
125759964,-2768,764,15328,-331,369,-302
125763472,-3060,1860,15536,-122,-77,-289
125767116,-2652,840,15740,-55,245,29
125770412,-3768,1444,15588,-84,144,88
125773796,-3916,-1172,16636,21,179,80
125777179,-3592,0,15956,-273,323,-317
125780562,-2792,732,16812,-235,-51,-381
125784143,-3076,500,15288,-23,90,110
125787415,-4100,1292,14872,74,-301,49
125790799,-3308,-1200,17268,-12,64,-91
125794268,-3164,520,15340,-116,214,11
125797652,-2272,264,15828,-145,44,-412
125801122,-2476,1392,15672,-122,194,60
125804592,-2888,2068,15468,-48,101,67
125808000,-3664,-876,16408,-46,217,32
125811358,-4408,932,16044,37,142,256
125814655,-3028,-528,17040,-241,147,-429
125818298,-2800,1088,15120,-170,114,-151
125821942,-3336,1620,15804,110,-212,-4
125825412,-2752,1028,15544,-70,34,48
125828708,-3780,784,15124,-25,130,112
125832115,-2556,-372,16284,-86,274,-197
125835683,-3136,840,15960,-292,319,-191
125839205,-2704,1852,15720,-269,350,-331
125842849,-2712,796,15316,-45,103,-23
125846232,-4264,1492,15868,62,-108,253
125849702,-3672,-1616,16532,-110,137,-134
125853432,-4376,460,15516,63,-53,102
125856777,-2480,24,16712,-129,-57,-339
125860199,-2860,924,15324,-261,195,-243
125863755,-3108,1912,15396,60,-22,123
125867139,-3708,-1304,17032,-17,190,90
125870609,-3932,788,16028,-83,336,80
125873905,-2912,-316,15960,-103,272,-27
125877462,-3292,224,15896,-197,255,-309
125881022,-2968,2728,15784,-214,69,-347
125884600,-3216,152,15140,24,-37,140
125887872,-4044,976,15328,154,-198,88
125891255,-3316,-1220,17108,-110,-50,-150
125894985,-2852,540,15408,-118,269,-41
125898455,-2208,772,16176,-127,-48,-333
125902012,-2536,1116,15780,-239,292,-123
125905655,-3132,2004,15276,-44,199,124
125909150,-2904,400,15588,18,55,109
125912335,-4416,812,16184,11,290,169
125915632,-2912,-104,16604,-255,-3,-437
125919188,-2796,1184,15012,-97,136,-120
125922745,-3348,1832,15724,-61,-155,-201
125926389,-3020,636,15936,22,-31,79
125929599,-3684,328,15080,-104,216,54
125933005,-3404,-1392,17004,-148,141,-310
125936747,-2772,1036,15992,-187,438,-94
125940269,-2452,840,15720,-278,219,-291
125943826,-2680,728,15300,-84,214,-196
125947296,-3152,2564,15656,57,-105,286
125950765,-3768,-1684,16608,53,8,161
125954062,-4176,348,15584,-2,108,-34
125957408,-2588,584,16500,-82,-167,-276
125960915,-2560,1116,15336,-215,236,-184
125964559,-3300,1856,15148,21,-51,167
125967942,-2952,348,15800,18,246,55
125971152,-3876,632,16216,-163,285,-17
125974622,-2408,364,15900,-136,284,-190
125978179,-3144,628,15564,-188,191,-248
125981760,-3008,2720,15688,-211,-52,-268
125985379,-3268,76,15456,32,64,136
125988502,-4320,700,15476,94,-34,110
125991798,-3196,-1248,17140,-107,94,-212
125995442,-2780,848,15264,-285,184,-275
125998999,-2352,1120,15720,-7,4,-212
126002295,-2660,892,15696,-56,119,45
126005592,-4096,792,16128,50,162,196
126008913,-3688,-1456,16388,-141,228,-112
126012618,-3452,324,15836,16,203,123
126015915,-2828,580,16536,-295,45,-386
126019385,-3016,636,15056,105,-63,176
126022768,-3684,1820,15508,129,-154,121
126026325,-3176,-1196,17140,-106,-17,-162
126030055,-3808,352,15176,-62,280,8
126033288,-2108,584,15960,-160,-56,-415
126036857,-2732,1476,15884,-205,308,-101
126040465,-3172,1892,15336,-218,228,-212
126044109,-2772,568,15512,37,77,81
126047232,-4600,500,16356,21,258,219
126050528,-2736,8,16504,-205,107,-332
126053911,-2812,1032,14900,-145,171,-133
126057657,-2752,560,16708,-55,-240,-261
126061112,-3004,676,15732,23,55,86
126064235,-3768,400,15208,-101,138,12
126067618,-3428,-1500,17016,-90,246,-262
126071261,-2996,1052,15980,-188,410,-28
126074818,-2360,664,15744,-282,248,-316
126078375,-2760,800,15344,-151,248,-230
126081956,-3180,2600,15580,56,-88,284
126085315,-3808,-1664,16716,76,98,152
126088698,-4312,548,15660,37,-27,34
126091908,-2564,168,16704,-69,-57,-314
126095378,-2868,1196,15600,-259,166,-249
126099021,-3244,1896,15352,71,24,205
126102318,-3800,-1500,17004,-10,186,109
126105875,-3924,764,16012,-119,303,-2
126109282,-2520,144,15812,-131,324,-137
126112815,-3200,504,15644,-190,184,-270
126116371,-2672,1296,16604,-194,1,-301
126119841,-3148,180,15392,-2,-21,172
126123138,-4312,620,15512,161,-234,144
126126608,-3236,-1376,17140,-173,88,-247
126130251,-2828,856,15224,-192,210,-60
126133745,-2312,936,15792,-68,-4,-270
126137143,-2600,1024,16012,-227,250,-116
126140748,-3260,1932,15328,23,202,191
126144131,-3744,-1348,16568,13,153,74
126147515,-4328,540,16392,-7,233,112
126150811,-2824,412,16576,-264,58,-419
126154281,-2852,1156,14744,-110,33,-97
126157800,-3488,1840,15628,104,-170,38
126161221,-3260,456,16120,-12,-39,88
126164518,-3880,252,15236,-126,319,-9
126167901,-2216,480,15988,-168,135,-336
126171458,-2652,1308,16032,-246,382,-167
126175101,-2380,1172,15644,-224,196,-222
126178745,-2916,480,15444,65,132,82
126181979,-4532,948,16200,48,4,282
126185077,-3716,-1804,16744,-148,113,-200
126188808,-3068,964,15012,-9,156,-72
126192104,-2508,772,16532,-60,-270,-261
126195661,-3032,760,15648,-38,128,65
126198957,-3836,388,15152,74,-77,187
126202254,-3480,-1468,17204,-83,234,-228
126205897,-3216,888,16016,-180,372,13
126209305,-2500,144,15972,-242,251,-366
126212837,-2664,1284,15248,-233,325,-269
126216481,-3400,2656,15636,136,-174,312
126220038,-3396,-644,15656,58,122,99
126223334,-4164,652,15440,68,-9,87
126226457,-2468,28,16616,-117,-66,-342
126229927,-2584,1232,15228,-268,188,-238
126233594,-3184,1812,15344,77,-52,139
126236957,-2988,424,15808,-32,193,110
126240372,-4092,540,16044,-113,315,27
126243720,-2612,64,15892,-147,327,-157
126247190,-3276,436,15692,-190,161,-245
126250747,-3144,2708,15888,-187,51,-327
126254304,-3236,276,15384,25,-47,144
126257649,-4160,1052,15408,129,-204,83
126261070,-3308,-1144,16916,-118,13,-185
126264714,-2748,600,15372,-134,205,-57
126268184,-2240,916,15664,-131,13,-304
126271654,-2648,928,15648,-240,262,-120
126275211,-3036,2092,15388,-15,199,122
126278681,-3964,-1180,16388,8,87,171
126282001,-4396,252,16456,13,231,145
126285274,-2768,484,16624,-277,32,-358
126288744,-2976,856,14948,-47,50,-87
126292040,-3156,2012,15880,49,-266,6
126295337,-3628,-1260,16844,-40,10,-55
126298807,-3868,68,15196,-101,273,-15
126302190,-2364,500,16132,-141,-61,-378
126305747,-2984,1176,15968,-259,442,-112
126309415,-2640,1912,15388,-301,260,-371
126313034,-2584,1492,15140,66,69,149
126316330,-4216,432,16200,4,187,238
126319540,-3000,-36,16684,-179,109,-284
126323096,-3212,776,15032,-135,148,-83
126326567,-3216,1564,16120,-98,-192,-376
126330210,-2708,1272,15652,-38,54,63
126333530,-4096,432,15388,84,-140,264
126336890,-3508,-1448,17076,-69,271,-234
126340568,-3996,1052,15868,-130,344,84
126344003,-2816,-472,15948,-275,291,-352
126347647,-2872,532,15788,-259,361,-386
126351204,-3064,2844,15588,151,-171,334
126354760,-3396,-400,15512,89,89,114
126358105,-4060,1248,15476,44,-60,107
126361440,-2620,-596,16820,-32,34,-135
126364910,-2928,836,15328,-347,258,-335
126368467,-2244,1036,15700,-58,-114,-231
126372110,-2796,860,15976,-119,236,11
126375494,-3124,2184,15240,-12,93,125
126378877,-3904,-1320,16564,-55,293,0
126382284,-3464,448,16020,-29,234,103
126385643,-2660,408,16628,-238,101,-405
126389200,-2988,616,14980,-135,90,-92
126392583,-3360,2016,15836,112,-250,0
126395967,-3460,-1220,16996,-92,30,-67
126399436,-3888,416,15336,-98,171,32
126402733,-2216,308,16144,-175,67,-385
126406206,-2512,1304,15580,-286,326,-134
126409871,-2848,2064,15480,-78,197,18
126413230,-3676,-820,16360,15,68,114
126416526,-4476,608,16172,101,251,235
126419910,-2988,-304,16912,-308,19,-443
126423466,-3136,852,15160,-98,66,-60
126426763,-3220,1544,16064,-6,-238,-108
126430320,-2668,1416,15644,-28,-57,63
126433726,-3808,600,15136,-70,210,112
126437086,-2428,-284,16188,-90,156,-237
126440678,-3080,900,15732,-250,445,-116
126444200,-2712,-160,16056,-339,294,-390
126447843,-2528,1304,15268,34,161,3
126451053,-4024,1564,15828,-3,-120,168
126454523,-3768,-1480,16268,-39,83,-86
126458041,-3588,444,15252,73,29,124
126461203,-2488,-408,16760,-132,-153,-386
126464933,-2500,1492,15352,-282,326,-310
126468576,-3012,1836,15544,70,-205,147
126472046,-3440,-1056,16784,-42,260,55
126475516,-3740,1480,15816,-43,191,162
126478986,-3192,-1132,16328,-11,181,88
126482481,-3528,88,15908,-230,311,-322
126485926,-2892,2488,16056,-250,-45,-335
126489575,-3140,396,15208,6,104,89
126492693,-3956,1444,15224,106,-129,142
126496250,-3508,-1264,17060,-12,65,-26
126499720,-3160,380,15196,-288,295,-288
126503276,-2240,252,16044,-94,-3,-348
126506684,-2600,1272,15904,-143,229,-22
126510216,-2836,2156,15388,-31,77,50
126513513,-3704,-1012,16420,-34,212,56
126516983,-4368,1116,16160,8,125,234
126520279,-3060,-744,16844,-264,172,-446
126523923,-3160,720,15172,-156,89,-153
126527393,-3216,1700,16136,76,-223,1
126530689,-3608,-856,16840,-35,-18,51
126534096,-3864,832,14916,-28,182,94
126537369,-2520,-452,16440,-190,17,-423
126540961,-3208,816,15924,-304,361,-196
126544483,-2612,1880,15544,-127,136,-16
126548039,-2880,980,15360,-39,80,-15
126551336,-3912,1784,15632,97,163,326
126554719,-3424,-1348,17068,-56,33,-68
126558250,-3632,408,15328,-84,186,-111
126561659,-2956,1296,16616,-169,-70,-364
126565303,-2592,1372,15152,-99,23,-40
126568686,-3696,1124,14880,34,-25,97
126571982,-3536,-1016,16860,-21,140,-80
126575539,-3516,552,16072,-6,376,147
126578835,-2852,-660,16164,-314,235,-395
126582504,-2756,1076,15276,-147,293,-203
126586123,-2812,2200,16108,-86,-84,11
126589506,-3544,-972,15908,4,-17,108
126592802,-4008,1236,15168,91,-68,118
126596186,-2568,-660,16880,-168,-45,-347
126599829,-3156,352,15216,-236,332,-245
126603386,-2804,1804,15640,-207,-44,-418
126607054,-2504,1284,15820,-94,268,26
126610413,-3744,1360,15544,-73,80,61
126613709,-3692,-1036,16404,21,191,54
126617092,-3900,380,16032,-143,234,-151
126620649,-3240,-544,16924,-239,44,-409
126624206,-2760,1092,14992,-67,63,6
126627415,-3720,1576,15204,80,-313,-1
126630799,-3504,-700,16796,-31,128,6
126634118,-3484,-28,15364,-230,258,-161
126637652,-2424,-296,16092,-199,145,-464
126641331,-2480,1360,15904,-301,373,-130
126644939,-2536,1936,15408,-130,126,-52
126648496,-2848,1084,15332,-24,130,-21
126651966,-4032,1548,15880,127,116,341
126655436,-3300,-1140,16824,-63,193,-76
126659041,-3496,624,15360,-117,49,-107
126662462,-2384,-160,16632,-107,-49,-383
126666106,-2512,1436,15212,-126,15,-37
126669576,-3180,1852,15528,92,-114,142
126673046,-3528,-1104,16912,-38,229,-107
126676689,-3880,908,15916,-79,275,108
126680073,-3048,-604,16188,-274,356,-316
126683741,-3252,276,15760,-183,234,-271
126687273,-2956,2480,15844,-224,-3,-378
126690830,-2924,544,15088,-21,-1,105
126694126,-3948,1344,15120,114,-247,48
126697596,-3468,-1116,17096,-66,42,-63
126701066,-3032,488,15252,-134,157,17
126704450,-2240,388,15728,-125,64,-390
126707944,-2420,1248,15608,-101,130,1
126711303,-2628,1964,15620,-62,123,41
126714686,-3684,-716,16264,23,122,120
126718069,-3776,-172,16088,57,197,225
126721453,-2928,-24,16796,-304,74,-445
126724923,-2776,780,15056,13,-9,16
126728046,-3664,1996,14948,-25,-154,-156
126731712,-3684,-528,16720,56,-65,171
126735072,-3332,-204,15376,-18,222,38
126738456,-2140,412,16244,-189,-26,-418
126742047,-2700,912,16004,-204,352,-44
126745482,-2476,1776,15380,-228,165,-197
126749126,-3572,-116,16028,13,13,46
126752335,-4260,900,16092,51,216,314
126755632,-3160,-676,16844,-272,48,-413
126759237,-3484,704,15248,-54,191,1
126762399,-3076,1256,16484,-43,-270,-162
126766042,-3352,-232,16436,-51,72,-9
126769339,-3764,876,14916,26,8,134
126772462,-2804,-684,16556,-167,177,-398
126776105,-3328,628,16000,-313,369,-147
126779662,-2424,1764,15656,-113,155,-118
126783330,-2760,1040,15332,-103,205,-92
126786862,-3888,2096,15528,-16,-168,72
126790332,-3544,-1280,16104,-5,153,52
126793715,-3908,500,15256,-93,72,-116
126797099,-2616,-596,16784,-120,-33,-345
126800742,-2556,1300,15308,-286,312,-254
126804386,-2944,1764,15864,33,-135,46
126807793,-3512,-672,16500,-92,257,56
126811152,-3932,1092,15676,-22,214,143
126814622,-3268,-868,16416,-286,371,-283
126818266,-3596,340,16004,-170,218,-134
126821822,-2764,1976,16112,-245,51,-425
126825379,-2900,1052,14964,-33,34,75
126828676,-3812,1476,15292,99,-307,52
126832082,-3552,-1180,16904,-65,125,-87
126835616,-3308,440,15248,-63,116,51
126838912,-2428,-180,16188,-161,124,-395
126842591,-2392,1528,15656,-340,346,-247
126846199,-2836,2160,15328,-35,127,46
126849582,-3552,-648,16220,-36,145,-16
126853052,-4116,1312,16012,108,119,286
126856571,-3372,-1084,17060,-101,200,-123
126860253,-3404,428,15244,-162,106,-115
126863809,-2440,100,16824,-83,-57,-356
126867279,-2832,1276,15476,-66,-15,12
126870663,-3604,956,14880,75,-43,171
126873959,-3696,-1400,17064,-69,194,-130
126877603,-3268,792,15860,-108,309,46
126880989,-2672,-96,15932,-317,281,-371
126884567,-2772,1016,15424,-161,192,-231
126888186,-3060,2680,15900,-11,-14,73
126891569,-3656,-1356,16264,48,-61,122
126895039,-4352,716,15244,108,73,108
126898336,-2540,-220,16752,-143,-171,-336
126902066,-2880,648,15308,-255,318,-249
126905623,-2368,676,15784,-148,-31,-371
126909204,-2488,1156,15652,-29,136,109
126912650,-2956,1900,15416,-86,200,56
126916033,-3900,-956,16580,20,113,74
126919329,-3392,-36,15988,-10,308,126
126922713,-2784,632,16588,-260,-32,-389
126926269,-3036,568,15148,18,20,106
126929479,-3912,1516,15080,68,-287,39
126932886,-3636,-1352,17008,-45,75,-63
126936332,-3064,560,15156,-131,173,21
126939716,-2212,56,16276,-109,16,-433
126943134,-2640,1484,15740,-162,249,26
126946569,-2828,1816,15524,-32,68,40
126949865,-3692,-808,16360,-53,260,55
126953248,-3820,168,16176,44,137,235
126956594,-3052,-624,16632,-254,167,-418
126960189,-2856,1260,14908,-185,112,-169
126963832,-3100,1784,16104,88,-229,21
126967215,-3540,-672,16888,-76,12,34
126970512,-3732,784,14956,4,124,133
126973722,-2412,-504,16272,-230,128,-477
126977365,-3028,948,16052,-312,321,-177
126980922,-2544,1852,15536,-85,172,-41
126984416,-2728,1036,15176,-57,83,-38
126987775,-4120,1616,15916,156,123,366
126991245,-3272,-1232,17140,-125,145,-78
126994889,-3664,480,15060,-101,126,-105
126998445,-2320,-208,16680,-133,-72,-392
127002089,-2732,1388,15448,-265,186,-216
127005732,-3044,1568,15668,28,43,73
127008967,-3596,-904,16760,5,130,-49
127012238,-3896,732,15912,-60,345,120
127015622,-2892,-324,16060,-317,239,-396
127019265,-3388,440,15840,-109,244,-208
127022822,-2940,2540,15924,-65,-111,68
127026292,-3224,644,15236,26,-45,116
127029589,-3976,1144,15452,60,-23,103
127032995,-2528,-524,16952,-71,-11,-86
127036442,-3152,316,15272,-269,355,-271
127039999,-2952,1876,15684,-184,-56,-417
127043677,-2660,1304,15688,-1,214,110
127047025,-3780,1132,15904,-53,118,75
127050409,-3760,-1036,16228,25,168,30
127053792,-3608,152,15896,-180,267,-172
127057451,-3020,-308,16804,-246,17,-415
127060905,-2840,944,15108,-159,167,-161
127064462,-3284,1832,15908,119,-353,35
127067932,-3480,-1172,17244,21,30,104
127071315,-3824,464,15196,-110,144,53
127074699,-2352,-72,16152,-131,71,-423
127078169,-2920,992,15748,-327,422,-181
127081750,-2932,2012,15476,-263,192,-317
127085369,-2784,880,15320,-31,213,63
127088665,-4256,1248,15776,76,119,283
127092049,-3760,-1880,16948,-87,181,-145
127095692,-3232,748,14984,-193,117,-150
127099249,-2436,220,16688,-62,-160,-312
127102806,-2836,1232,15660,-286,224,-241
127106474,-3264,1832,15176,57,-17,175
127109832,-3692,-1360,17036,-7,212,93
127113216,-3992,756,16308,-145,321,48
127116599,-2684,-60,15860,-304,357,-377
127120155,-3160,412,15476,-177,193,-259
127123712,-3152,2648,15808,-182,-8,-267
127127269,-3072,276,15260,39,-4,132
127130479,-4256,804,15444,95,15,105
127133712,-2452,-224,16736,-140,99,-205
127137245,-2808,632,15332,-269,223,-259
127140802,-2228,1040,15860,-101,63,-312
127144398,-2688,876,15616,-71,154,56
127147655,-3996,1080,15812,-18,194,128
127151125,-3780,-1276,16608,-60,120,-20
127154682,-3348,376,15784,-4,284,136
127158027,-2688,360,16608,-234,-21,-401
127161535,-2948,736,15276,-133,70,-109
127165005,-3336,1996,15964,105,-256,101
127168562,-3512,-1280,17212,-17,24,92
127171945,-3812,380,15340,-112,275,28
127175329,-2248,336,16072,-172,-34,-393
127178885,-2620,1244,15808,-268,419,-174
127182553,-2896,2068,15324,-246,227,-292
127186172,-2712,692,15284,63,137,100
127189469,-4416,972,16204,42,-36,311
127192765,-3668,-1740,16632,-117,107,-225
127196496,-3268,752,14888,19,126,24
127199705,-2396,604,16656,-85,-213,-285
127203262,-2856,776,15548,-51,107,42
127206583,-3448,1808,15128,56,-74,175
127209942,-3564,-1352,16924,-45,260,-178
127213585,-3912,468,16192,-165,336,-32
127217055,-2540,432,15992,-265,299,-280
127220612,-2944,608,15400,-181,252,-239
127224169,-3232,2764,15544,86,-93,220
127227552,-3180,124,15324,30,93,159
127230762,-4344,680,15352,86,-65,88
127233995,-2452,-92,16548,-128,-48,-375
127237528,-2744,1028,15144,-238,148,-244
127241172,-3076,1704,15460,65,-13,115
127244590,-2804,768,15652,-71,170,61
127247852,-4160,452,15984,-43,341,94
127251148,-2716,-116,16080,-322,265,-367
127254792,-3388,392,15584,-155,209,-212
127258397,-2928,2608,15844,-239,63,-369
127261905,-3148,732,15248,30,-47,173
127265202,-4104,888,15436,137,-168,141
127268672,-3408,-1140,17192,-113,-27,-181
127272402,-3792,164,15292,-112,242,-23
127275872,-2184,724,15820,-165,-28,-360
127279429,-2820,1300,15836,-221,263,-145
127283097,-3060,2024,15228,-221,258,-196
127286715,-2864,460,15512,30,81,78
127289839,-4444,624,16480,14,279,169
127293135,-2964,60,16744,-198,142,-284
127296605,-2940,1056,14876,-115,165,-112
127300248,-2656,892,16600,-22,-213,-175
127303805,-3048,636,15884,4,63,65
127306866,-3752,336,15300,-96,165,49
127310138,-2368,160,16044,-148,162,-264
127313695,-2816,1116,15932,-292,351,-185
127317338,-2464,1080,15664,-275,192,-290
127320982,-2912,432,15396,-57,204,-145
127324452,-3368,2588,15544,52,-90,251
127327835,-3584,-1784,16968,-115,154,-179
127331589,-4352,268,15464,-47,101,-10
127334949,-2544,656,16500,-133,-61,-326
127338505,-2640,1128,15400,-208,240,-181
127342149,-2580,1436,15780,-54,-142,-130
127345827,-3092,168,15984,43,275,87
127349002,-3888,324,16052,13,197,163
127352298,-3568,-1104,16456,-180,305,-242
127356032,-3016,620,15568,-120,293,-33
127359547,-2620,1608,16400,-171,-86,-235
127363142,-2792,1328,14924,-33,77,16
127366439,-3648,1712,15500,150,-236,149
127369996,-2908,-944,17016,-31,121,28
127373379,-3392,228,15248,-212,229,-160
127376936,-2412,1244,15772,-183,115,-454
127380579,-2580,1544,15800,-223,272,-58
127384160,-2544,1536,15632,-157,87,-133
127387693,-3284,164,15868,75,205,180
127390989,-4132,1264,15856,126,42,316
127394372,-3152,-824,16896,-279,178,-453
127398016,-3648,612,15204,-118,97,-82
127401399,-2872,1396,16240,51,-203,-146
127404956,-2580,1576,15416,-110,38,-2
127408364,-3708,892,15020,51,37,197
127411549,-2728,-768,16372,-238,143,-469
127415192,-3440,800,15884,-236,331,-106
127418749,-2548,1452,15744,-295,340,-379
127422393,-2592,1312,15204,-89,121,-108
127425949,-2848,2524,16172,24,-137,123
127429419,-3788,-1260,16184,-67,85,-15
127432913,-4008,980,15424,114,-110,141
127436359,-2700,-700,16972,-187,-17,-399
127440003,-2956,544,15372,-283,240,-226
127443560,-2960,1612,15508,-77,-28,-316
127447151,-2608,1316,15712,-87,164,35
127450500,-3728,1320,15864,-40,109,90
127453883,-3920,-1108,16388,-24,196,60
127457401,-3616,-68,15960,-205,286,-280
127460910,-2728,356,16740,-264,97,-425
127464380,-2884,776,15104,46,-89,126
127467676,-4048,1368,15176,118,-197,76
127471146,-3548,-1200,17012,-69,-6,-82
127474616,-3176,328,15184,-49,165,51
127477913,-2244,196,16240,-201,64,-471
127481386,-2700,1428,15840,-267,313,-167
127485051,-2916,2152,15512,-86,189,87
127488409,-3792,-948,16424,28,57,71
127491619,-4360,960,16124,82,256,275
127494916,-3088,-608,16844,-285,21,-507
127498472,-2848,1128,14916,-140,157,-157
127502116,-3352,1748,16152,92,-301,17
127505499,-3652,-948,16920,-42,-29,77
127508907,-3764,836,14944,-36,153,95
127512179,-2456,-384,16372,-208,58,-482
127515736,-3048,972,15900,-301,445,-170
127519292,-2548,1872,15340,-286,249,-333
127522936,-2644,888,15372,-1,204,11
127526146,-4160,1404,16012,59,93,294
127529442,-3356,-1100,17000,-58,124,-102
127533109,-3392,496,15220,-196,134,-185
127536642,-2508,52,16596,-88,-196,-326
127540112,-2652,1216,15452,-102,63,13
127543496,-3192,1808,15200,23,-87,89
127546796,-3640,-1304,16944,-21,281,-111
127550470,-4060,812,15972,-105,314,93
127553819,-2872,-340,15952,-272,375,-317
127557523,-3360,472,15640,-166,214,-216
127561019,-2856,2396,15832,-2,-91,93
127564315,-3784,-1240,16156,43,21,132
127567699,-4092,944,15688,89,-69,150
127570995,-2612,-536,16636,-159,10,-365
127574552,-2784,752,15160,-305,214,-256
127578109,-2916,1772,15608,-79,-25,-284
127581690,-2792,984,15792,-111,195,20
127585049,-3940,1020,15892,20,65,189
127588345,-3868,-1500,16688,-103,292,-87
127591989,-3544,300,15928,-151,266,-192
127595546,-2808,132,16724,-279,106,-425
127599102,-2968,988,15068,-147,63,-130
127602572,-3304,1780,15768,156,-220,77
127606046,-3544,-1076,17224,-56,36,84
127609450,-3776,328,15204,-55,182,35
127612722,-2188,180,16220,-193,34,-405
127616192,-2840,1236,15992,-299,324,-179
127619835,-2956,2208,15264,-46,170,76
127623219,-2676,588,15504,-27,58,63
127626429,-4340,1020,16260,79,212,290
127629812,-3032,-548,16668,-298,62,-446
127633392,-2980,864,14776,-115,110,-193
127636925,-3236,1892,16060,-38,-143,-266
127640569,-2868,904,15632,-43,-41,42
127643865,-3760,672,15128,82,42,193
127647075,-3496,-1484,17024,-84,148,-251
127650753,-2848,1092,15976,-288,447,-177
127654362,-2568,348,15880,-283,240,-322
127657967,-2524,964,15148,-179,180,-253
127661476,-3312,2700,15620,76,-72,241
127664859,-3648,-1692,16588,10,-7,138
127668242,-4244,684,15416,35,101,56
127671452,-2480,256,16536,-109,-165,-321
127675095,-2672,1116,15364,-219,230,-222
127678739,-3188,1804,15176,-110,-33,-169
127682407,-2836,484,15752,41,112,85
127685592,-3964,1032,16176,-110,328,86
127689062,-3908,-1508,16612,-103,227,-66
127692706,-3148,396,15668,-77,357,-76
127696089,-2616,1592,16492,-195,-87,-233
127699732,-3380,-84,15468,-33,63,2
127702855,-4232,1136,15256,65,-235,69
127706242,-3324,-1436,17172,-48,11,-181
127709820,-2792,752,15268,-193,382,-126
127713352,-2164,1084,15848,-111,-144,-272
127717082,-2696,1364,15944,-181,360,-75
127720639,-2724,2148,15296,-288,276,-328
127724283,-2892,864,15428,146,28,265
127727579,-4364,-128,16436,122,100,369
127731053,-3476,-1460,16956,-238,111,-411
127734803,-3840,480,15280,-14,177,20
127738076,-2788,896,16336,-62,-256,-269
127741633,-3148,488,16156,-119,107,-76
127745103,-3464,1420,15096,23,28,128
127748399,-3320,-1200,16820,-92,179,-286
127752078,-3736,464,16100,-251,401,-64
127755512,-2512,1008,15724,-274,280,-292
127759204,-2784,1036,15444,-122,239,-196
127762800,-2620,1872,16132,-142,-116,-107
127766530,-3488,-456,15720,4,17,47
127769653,-3792,1448,15100,77,-155,153
127773123,-2816,-972,16872,-123,21,-343
127776680,-3388,256,15328,-265,317,-212
127780236,-2536,1544,15688,-42,-98,-97
127783731,-2644,1404,15920,-152,323,-25
127787263,-3480,1596,15372,12,146,200
127790646,-3424,-648,16112,83,195,106
127794030,-4096,300,16104,-111,241,-64
127797500,-2616,1368,16492,-200,117,-395
127801143,-2904,1216,14912,-81,12,-56
127804526,-3148,1512,16336,31,-266,-44
127808021,-3476,-436,16620,-28,107,29
127811380,-3612,216,15300,-30,65,128
127814676,-2712,-868,16492,-193,161,-417
127818320,-2596,1400,15980,-331,356,-163
127821963,-2596,1700,15504,-99,167,-112
127825520,-2604,944,15316,-111,192,-98
127828990,-4080,1884,15656,172,18,378
127832396,-3348,-1584,17000,-69,190,-42
127835930,-3632,508,15220,-100,76,-98
127839313,-2948,1104,16508,-121,15,-368
127842870,-2664,1336,15404,-114,-53,-51
127846427,-3236,1904,15612,12,-8,55
127849636,-3456,-976,16544,19,133,-21
127853055,-3600,820,15948,-252,423,-122
127856625,-2952,-888,16292,-327,338,-328
127860220,-2876,944,15404,-158,212,-217
127863776,-2884,2404,16068,-82,-44,-6
127867160,-3620,-900,15936,-17,-46,97
127870543,-3712,1448,15152,142,-16,136
127874013,-2712,-968,16808,-185,-68,-347
127877657,-3220,388,15404,-233,303,-263
127881217,-2752,1640,15592,-222,97,-402
127884795,-2620,1220,15896,-53,168,31
127888153,-3788,1472,15760,-64,192,42
127891537,-3636,-932,16096,-7,140,66
127894833,-3900,180,16104,-126,343,-138
127898390,-3112,-600,16760,-304,37,-465
127901947,-2604,1120,14948,-104,129,-161
127905590,-3276,1592,16200,39,-255,-4
127908998,-3496,-728,16856,-32,-51,54
127912357,-3676,704,15116,-57,230,70
127915653,-2468,-388,16100,-205,57,-449
127919210,-3064,916,15852,-238,407,-165
127922767,-2496,1996,15400,-150,104,-83
127926323,-2660,1000,15232,10,158,-42
127929707,-4056,1600,15976,101,49,334
127933113,-3680,-1388,16472,-62,96,-63
127936560,-3520,428,15108,-173,168,-138
127940117,-2316,-292,16680,-117,-134,-354
127943847,-2652,1452,15420,-243,278,-271
127947490,-3180,1940,15568,54,-139,137
127950960,-3540,-1236,16872,-22,199,56
127954465,-3852,1348,15856,-67,260,179
127957950,-3176,-1016,16320,-18,169,53
127961370,-3308,212,15832,-285,335,-351
127964927,-2720,2600,15852,-223,-63,-353
127968571,-3232,216,15124,47,99,74
127971694,-3884,1496,14996,31,-253,18
127975077,-3408,-1212,17028,11,46,-33
127978460,-3072,468,15420,-309,266,-352
127982041,-2184,556,15948,-154,-46,-327
127985574,-2656,1124,15676,-112,259,37
127989044,-2984,2088,15456,-62,39,113
127992427,-3744,-936,16424,-44,286,61
127995810,-3772,-8,15888,81,132,220
127999020,-2844,-240,16888,-297,136,-476
128002663,-2952,960,15056,-169,87,-152
128006137,-3416,1704,16024,100,-238,-31
128009715,-3528,-836,16884,-53,7,81
128012900,-3632,828,14928,-52,111,55
128016196,-2344,-252,16144,-214,87,-422
128019753,-2596,1476,15720,-295,320,-174
128023397,-2696,2040,15460,-79,205,33
128026780,-2620,844,15432,-20,110,34
128030076,-4196,1456,16032,120,160,332
128033570,-3324,-1116,17028,-96,99,-117
128037103,-3408,568,15188,-107,115,-123
128040660,-3204,1304,16332,-134,-6,-348
128044217,-2596,1408,15508,-34,-27,29
128047600,-3780,772,14988,73,30,195
128050810,-3616,-1400,16740,-46,140,-175
128054491,-3560,832,16016,-11,301,202
128057939,-3032,-1016,16052,-322,317,-402
128061567,-2448,1580,14976,-236,275,-356
128065210,-2956,2716,15624,46,-139,207
128068680,-3216,108,15500,23,-27,74
128071890,-3964,1540,15132,83,2,117
128075100,-2644,-796,16708,-139,-93,-395
128078743,-2956,852,15276,-284,341,-295
128082324,-2948,1592,15720,-125,-68,-307
128085943,-2644,1204,15756,-87,275,16
128089331,-3796,1028,15844,-41,139,127
128092796,-3764,-1240,16580,-41,175,-14
128096353,-3856,380,15780,23,306,183
128099650,-2956,-248,16876,-250,5,-391
128103120,-2896,1024,14944,-38,72,16
128106441,-3792,1408,14988,82,-293,7
128109713,-3532,-1020,16996,-24,78,-24
128113183,-3260,652,15512,-230,174,-174
128116740,-2464,-120,16104,-136,53,-340
128120296,-2756,1380,15688,-327,387,-219
128123940,-2724,2196,15424,-43,93,69
128127236,-3520,-728,16208,-5,166,64
128130533,-4356,1164,16048,95,117,283
128133939,-3024,-836,16872,-287,185,-421
128137560,-3308,696,15188,-160,70,-123
128141030,-3052,1576,16300,48,-191,-44
128144500,-2776,1264,15504,-73,-17,29
128147883,-3640,692,15152,-14,157,100
128151266,-2484,-520,16556,-96,242,-174
128154862,-3380,664,16052,-260,366,-163
128158428,-2728,-440,15920,-317,408,-427
128162023,-2512,1324,15072,-60,50,-40
128165406,-2904,2712,15892,108,-58,268
128168876,-3836,-1472,16392,-147,113,-138
128172606,-4116,848,15324,131,-38,165
128175990,-2404,-408,16728,-154,125,-246
128179633,-2660,1072,15220,-241,158,-248
128183301,-2236,840,15888,-93,25,-241
128186660,-2672,964,15552,-73,139,25
128189957,-3828,1108,15896,-31,197,105
128193427,-3892,-1280,16604,-26,162,41
128196897,-3588,100,15960,-210,355,-346
128200453,-2496,988,16252,-271,-17,-367
128204010,-3184,212,15092,-24,9,-46
128207244,-3468,1872,15752,16,-170,42
128210603,-3384,-1248,16928,0,19,-53
