Time,Accel_X,Accel_Y,Accel_Z,Gyro_X,Gyro_Y,Gyro_Z
388155208,-2772,-272,15968,-95,48,-69
388158591,-2780,-264,15836,-63,161,-49
388162061,-2880,-204,15972,-100,47,-68
388165531,-2976,-152,16076,-58,128,-56
388169050,-2784,-216,15924,-122,101,-38
388172558,-2988,-100,15952,-96,56,21
388175855,-2792,-104,15916,-111,179,-142
388179498,-2748,-180,16020,-34,68,-86
388182881,-2752,-292,16064,-116,167,-49
388186438,-2860,-284,16148,-95,35,-26
388189821,-2852,-196,15924,-85,119,-63
388193315,-2948,-216,15976,-88,166,-26
388196762,-2716,-248,16044,-79,59,-104
388200231,-2872,-284,15972,-50,140,-30
388203736,-2824,-232,16144,-118,62,-103
388207258,-2832,-264,16024,-66,61,-17
388210641,-2728,-268,15956,-136,150,-76
388214198,-2804,-204,15884,-88,69,-63
388217606,-2748,-180,15916,-90,179,-87
388221052,-2852,-260,16132,-105,45,-45
388224521,-2700,-244,15964,-73,183,-77
388227992,-2944,-252,16004,-100,85,-56
388231461,-2788,-244,16036,-63,119,-66
388234932,-2848,-172,15928,-100,149,-32
388238488,-2716,-152,15908,-100,59,-35
388241983,-2844,-176,15980,-59,164,-47
388245428,-2780,-212,16000,-116,40,-84
388248898,-2780,-128,15884,-44,142,-84
388252368,-2812,-172,15948,-125,62,-77
388255838,-2836,-280,15844,-56,95,-55
388259222,-2788,-232,15972,-116,170,-79
388262778,-2788,-204,16072,-81,64,-55
388266165,-2832,-192,15848,-80,171,-46
388269680,-2780,-280,16028,-93,55,-41
388273015,-2672,-244,16064,-43,130,-47
388276485,-2836,-228,15904,-115,95,-64
388279955,-2928,-172,15964,-84,64,-69
388283338,-2864,-304,16008,-110,131,-90
388286895,-2844,-320,15908,-73,67,-61
388290278,-2736,-180,16100,-92,185,-76
388293771,-2780,-288,15964,-82,40,-35
388297131,-2752,-300,15892,-82,126,-71
388300601,-2884,-212,16040,-130,124,-70
388304193,-2832,-176,16024,-70,125,-47
388307628,-2792,-220,16028,-111,180,-53
388311185,-2856,-256,15964,-60,48,-78
388314568,-2784,-192,16000,-77,199,-42
388318063,-2760,-236,15880,-83,49,-64
388321421,-2868,-216,16012,-93,206,-73
388324891,-2796,-288,16056,-94,78,-60
388328274,-2784,-184,16044,-69,175,-65
388331744,-2804,-224,15824,-111,137,-69
388335301,-2828,-160,15928,-49,93,-77
388338685,-2788,-204,15968,-80,207,-39
388342179,-2848,-272,15748,-91,57,-65
388345538,-2816,-148,15952,-75,143,-68
388349008,-2780,-244,15960,-122,85,-67
388352478,-2788,-176,16096,-78,84,-38
388355861,-2828,-140,16016,-124,153,-73
388359418,-2916,-176,15884,-65,42,-86
388362801,-2772,-264,16016,-90,225,-41
388366319,-2880,-248,16052,-88,47,-74
388369654,-2728,-116,16000,-51,132,-59
388373124,-2752,-104,15972,-89,108,-58
388376594,-2724,-248,15964,-84,99,-75
388379978,-2812,-288,16156,-98,164,-59
388383447,-2864,-120,16064,-108,96,-61
388386918,-2664,-252,15980,-80,178,-41
388390388,-2916,-240,15936,-138,118,-80
388393967,-2752,-296,15980,-61,89,-73
388397328,-2848,-240,15968,-68,198,-86
388400798,-2772,-228,16004,-94,62,-64
388404219,-2868,-176,16068,-68,159,-39
388407651,-3008,-20,15860,-80,66,-63
388410947,-2752,-284,16016,-59,187,-83
388414417,-2768,-216,16008,-101,112,-45
388417998,-2868,-192,15884,-60,79,-31
388421357,-2712,-324,15964,-86,189,-112
388424914,-2732,-284,16008,-97,44,-60
388428297,-2916,-40,15664,-115,156,-50
388431767,-3168,48,15840,-87,49,-32
388434977,-2752,-244,15792,-45,197,-69
388438447,-2852,-140,16072,-100,66,-23
388441942,-2664,-180,16032,-68,155,-81
388445387,-2876,-316,16144,-115,152,-42
388448944,-2692,-172,15948,-78,100,-51
388452414,-2848,-208,15872,-60,179,-67
388455884,-2716,-256,15840,-83,57,-52
388459267,-2836,-336,16044,-48,124,-31
388462737,-2792,-108,15988,-107,62,-55
388466211,-2824,-212,16080,-65,111,-76
388469726,-2880,-212,15904,-112,105,-39
388473234,-2812,-212,15948,-118,70,-43
388476704,-2888,-208,15948,-93,187,-70
388480174,-2860,-248,16048,-96,54,-46
388483557,-2716,-200,16052,-78,185,-53
388487027,-2828,-236,15904,-119,102,-59
388490584,-2804,-324,15996,-71,111,-77
388494077,-2816,-196,15916,-88,164,-47
388497524,-2736,-268,15980,-137,70,-48
388500994,-2932,-164,16068,-73,156,-19
388504499,-2796,-260,15852,-91,95,-129
388507934,-2828,-200,15992,-46,103,-47
388511404,-2776,-192,15892,-149,84,-61
388514874,-2864,-108,15900,-105,43,-53
388518368,-2768,-236,16088,-119,181,-107
388521987,-2844,-272,15956,-100,23,-36
388525457,-2680,-264,16024,-104,209,-102
388529101,-2624,-280,15940,-122,52,-25
388532571,-2872,-36,16000,-97,110,-76
388535954,-2744,-152,16048,-98,169,-63
388539424,-2700,-284,15884,-61,59,-64
388542832,-2816,-232,16156,-49,151,-38
388546277,-2672,-356,15912,-115,39,-62
388549747,-3016,-232,16048,-1,35,21
388552957,-2584,-736,16724,19,245,-282
388556427,-2444,-508,15756,-120,-72,246
388559984,-3424,-76,16352,-174,162,-112
388563541,-2436,-440,15692,1,11,73
388566724,-2900,4,16064,-143,176,-96
388569960,-2576,-92,15808,-1,-20,42
388573170,-2784,-228,16012,-192,262,-215
388576813,-2864,-80,15880,5,-39,39
388579936,-2696,-204,15936,-184,264,-183
388583580,-2920,-216,16176,-33,-52,72
388586963,-2776,-108,15904,-111,253,-181
388590606,-3016,-192,16252,-50,27,23
388593926,-2772,-288,15948,-115,167,-151
388597546,-2888,-272,16124,-40,143,2
388600843,-2736,-204,15720,-133,74,-95
388604316,-2808,-328,16116,-92,146,-58
388607818,-2652,-272,15792,-112,74,-87
388611253,-2836,-236,15944,-47,151,-56
388614723,-2660,-188,15876,-116,110,-67
388618304,-2952,-104,16140,-66,132,-40
388621750,-2736,-92,15924,-121,189,-84
388625220,-2988,-192,15952,-95,80,-42
388628603,-2700,-260,15988,-73,159,-69
388632073,-2820,-216,15880,-92,36,-100
388635543,-2820,-196,16024,-65,144,-54
388639013,-2780,-256,15908,-135,82,-82
388642507,-2928,-236,15972,-79,60,-40
388645866,-2924,-264,15996,-103,170,-75
388649423,-2840,-208,15964,-83,43,-58
388652806,-2812,-172,15928,-108,192,-67
388656363,-2816,-232,15920,-111,50,-66
388659833,-2732,-248,16100,-76,160,-58
388663303,-2848,-204,16012,-124,115,-75
388666908,-2812,-248,16048,-96,112,-61
388670330,-2768,-212,15936,-99,178,-44
388673800,-2716,-120,15804,-99,52,-78
388677183,-2840,-220,16032,-76,147,-41
388680653,-2824,-188,16012,-95,69,-73
388684036,-2824,-200,16016,-52,163,-65
388687506,-2888,-256,16128,-105,100,-74
388691066,-2920,-228,16068,-68,113,-72
388694556,-2812,-332,15916,-122,128,-60
388698090,-2856,-236,15988,-97,42,-82
388701473,-2812,-252,15956,-64,167,-43
388704943,-2664,-160,15908,-101,57,-87
388708448,-2696,-228,16084,-95,112,-88
388711883,-2648,-240,16000,-130,85,-76
388715353,-2808,-232,15916,-105,76,-68
388718848,-2688,-116,15988,-88,167,-75
388722293,-2760,-148,16100,-94,70,-79
388725676,-2820,-200,15900,-85,165,-66
388729146,-2916,-248,15928,-118,103,-71
388732703,-2836,-200,15988,-67,125,-62
388736173,-2924,-240,15912,-100,118,-69
388739730,-2868,-264,16088,-68,69,-45
388743138,-2792,-272,15884,-88,180,-61
388746583,-2820,-172,15968,-90,68,-49
388749966,-2872,-260,16108,-62,137,-16
388753436,-2848,-208,16040,-81,48,-63
388756820,-2740,-216,16112,-68,164,-23
388760290,-2804,-220,15936,-128,95,-68
388763760,-2760,-136,15828,-66,100,-117
388767365,-2704,-264,16032,-88,150,-70
388770786,-2824,-148,16044,-83,78,-49
388774170,-2804,-300,16044,-75,168,-52
388777640,-2848,-180,16064,-96,42,-70
388781023,-2828,-188,15856,-65,95,-54
388784406,-2832,-200,16004,-102,123,-70
388787963,-2844,-248,15984,-69,81,-92
388791369,-2864,-292,16068,-76,153,-68
388794816,-2916,-228,15908,-94,61,-57
388798199,-2764,-220,15940,-94,175,-51
388801669,-2780,-296,15952,-119,103,-76
388805226,-2964,-244,16044,-58,101,-43
388808731,-2728,-184,16036,-117,172,-54
388812253,-2780,-116,15912,-74,68,-64
388815636,-2744,-272,15912,-102,184,-69
388819217,-2684,-180,16020,-83,46,-45
388822576,-2804,-224,15892,-73,136,-68
388826046,-2884,-312,16168,-95,58,-70
388829429,-2872,-132,16016,-68,159,-63
388832899,-2792,-256,16112,-118,107,-72
388836456,-2760,-252,15876,-64,84,-40
388839839,-2812,-220,16040,-91,175,-62
388843334,-2796,-232,15948,-101,65,-72
388846779,-2916,-200,16084,-67,174,-58
388850249,-2852,-160,15984,-88,58,-58
388853633,-2792,-256,15880,-92,66,-33
388857016,-2864,-216,15816,-102,148,-53
388860572,-2808,-192,15968,-90,58,-61
388863956,-2824,-184,16176,-98,174,-35
388867474,-2880,-220,16156,-89,61,-83
388870809,-2808,-248,15956,-54,161,-65
388874279,-2748,-208,15984,-110,70,-72
388877749,-2900,-292,15964,-68,100,-47
388881219,-2852,-260,15972,-128,103,-108
388884863,-2896,-276,15968,-74,65,-66
388888246,-2860,-212,15912,-103,170,-74
388891830,-2836,-208,16000,-97,82,-63
388895186,-2936,-160,15916,-86,183,-63
388898656,-2748,-152,16060,-115,78,-58
388902126,-2824,-188,15912,-64,135,-41
388905596,-2848,-188,16156,-109,164,-70
388909188,-2872,-200,15948,-58,94,-69
388912536,-2776,-228,16028,-86,184,-78
388916009,-2864,-176,16016,-85,31,-57
388919413,-2840,-212,15936,-91,176,-24
388922859,-2760,-156,16012,-96,41,-106
388926329,-2740,-188,15824,-56,125,-33
388929799,-2764,-228,15940,-119,96,-56
388933269,-2964,-220,15972,-79,94,-79
388936652,-2864,-300,16000,-117,141,-77
388940209,-2828,-224,15944,-101,62,-86
388943703,-2752,-220,15972,-87,169,-61
388947149,-2852,-248,16076,-104,73,-47
388950619,-2816,-240,16068,-58,137,-65
388954089,-2872,-232,16132,-110,148,-54
388957646,-2752,-212,15828,-83,85,-44
388961029,-2808,-212,16140,-78,170,-59
388964499,-2684,-204,15888,-105,41,-50
388968018,-2860,-300,15964,-72,145,-62
388971439,-2768,-208,15812,-108,49,-106
388974996,-2836,-248,16024,-61,112,-36
388978466,-2784,-196,15932,-111,84,-90
388981936,-2788,-232,15912,-113,56,-81
388985406,-2944,-228,15968,-72,199,-53
388988876,-2712,-308,15948,-68,50,-69
388992282,-2896,-184,16096,-66,152,-40
388995729,-2764,-204,15948,-92,46,-30
388999112,-2728,-176,15928,-75,81,-35
389002496,-2828,-148,15908,-115,109,-84
389006052,-2832,-272,15936,-84,37,-56
389009471,-2720,-300,15968,-105,185,-88
389012992,-2856,-260,15872,-84,48,-70
389016400,-2760,-184,16132,-74,159,-44
389019845,-2816,-320,15972,-116,90,-75
389023316,-2828,-76,15848,-62,133,-54
389026699,-2848,-140,15944,-108,61,-61
389030169,-2868,-252,15964,-89,66,-66
389033552,-2880,-216,15988,-113,151,-53
389037109,-2712,-292,15840,-100,56,-61
389040579,-2764,-272,16124,-71,166,-66
389044073,-2756,-136,16032,-104,81,-85
389047519,-2780,-320,16036,-63,144,-45
389050989,-2748,-224,15936,-104,122,-86
389054546,-2732,-172,16068,-88,63,-44
389057929,-2876,-132,15860,-47,164,-11
389061399,-2792,-136,15836,-90,60,-72
389064782,-2916,-184,16000,-54,127,-65
389068354,-2736,-316,15972,-114,96,-80
389071722,-2776,-288,15968,-57,88,-45
389075105,-2800,-216,16048,-123,113,-81
389078662,-2804,-232,15968,-86,65,-57
389082045,-2804,-248,16056,-92,165,-54
389085515,-2804,-284,16004,-99,39,-67
389088898,-2716,-212,15880,-60,173,-56
389092392,-2828,-216,15908,-110,45,-52
389095838,-2824,-240,16016,-58,136,-73
389099308,-2688,-236,15916,-110,70,-72
389102778,-2772,-268,16036,-85,67,-65
389106162,-2856,-176,16036,-90,128,-80
389109671,-2836,-172,16048,-95,68,-67
389113015,-2740,-228,16124,-81,182,-43
389116509,-2784,-288,15908,-118,61,-78
389119955,-2760,-240,15936,-59,165,-44
389123425,-2784,-296,15896,-108,115,-62
389126982,-2764,-200,15988,-72,117,-53
389130452,-2832,-180,16028,-110,162,-58
389134009,-2844,-256,16008,-77,76,-79
389137392,-2824,-260,16080,-86,168,-54
389140865,-2736,-276,16044,-75,16,-54
389144270,-2804,-296,15972,-62,167,-45
389147715,-2824,-156,15856,-110,101,-63
389151272,-2760,-208,15912,-95,47,-95
389154655,-2820,-256,15904,-108,159,-72
389158212,-2736,-164,16004,-84,83,-58
389161595,-2784,-140,15956,-93,156,-90
389165065,-2784,-232,16056,-84,46,-66
389168497,-2876,-276,15916,-41,113,-58
389171918,-2864,-148,15904,-115,87,-53
389175388,-2900,-244,16040,-79,69,-57
389178771,-2716,-264,15996,-116,151,-51
389182328,-2692,-260,15992,-87,65,-67
389185712,-2832,-196,15924,-88,193,-45
389189181,-2728,-184,15876,-103,63,-65
389192675,-2788,-236,15808,-60,137,-44
389196122,-2792,-264,15968,-139,143,-80
389199678,-2780,-212,16024,-58,99,-65
389203062,-2748,-160,15792,-94,158,-69
389206532,-2788,-224,15936,-94,61,-72
389209950,-2796,-240,15896,-101,172,-58
389213471,-2812,-272,16104,-97,61,-81
389216879,-2664,-252,16020,-54,183,-26
389220325,-2792,-212,16012,-104,113,-71
389223882,-2764,-256,15932,-59,100,-61
389227352,-2888,-232,16024,-125,176,-37
389230908,-2812,-216,15984,-87,49,-48
389234291,-2760,-244,15964,-73,166,-63
389237761,-2780,-248,15808,-83,57,-81
389241148,-2860,-124,16076,-73,98,-77
389244576,-2760,-168,15904,-114,83,-81
389247998,-2800,-296,16052,-73,56,-63
389251381,-2880,-252,15980,-117,165,-102
389255025,-2820,-256,15924,-110,44,-64
389258495,-2928,-204,16160,-74,184,-64
389261965,-2808,-252,15968,-99,48,-54
389265348,-2812,-300,15964,-73,163,-76
389268842,-2932,-276,16128,-133,117,-58
389272375,-2860,-300,16072,-36,73,-60
389275758,-2792,-232,15888,-80,193,-49
389279228,-2788,-176,15904,-69,50,-78
389282611,-2812,-188,16068,-108,152,-52
389286168,-2804,-268,15928,-92,60,-71
389289551,-2716,-244,15944,-76,140,-52
389293045,-2772,-128,16064,-136,83,-72
389296491,-2684,-192,15824,-54,95,-48
389299874,-2748,-176,16048,-108,171,-72
389303431,-2780,-192,15884,-69,63,-63
389306814,-2712,-176,16016,-58,142,-47
389310320,-2800,-276,15932,-103,62,-89
389313755,-2836,-212,15928,-61,114,-67
389317249,-2780,-248,16000,-116,107,-78
389320781,-2720,-228,16068,-87,63,-72
389324165,-2816,-204,15968,-107,167,-53
389327721,-2812,-324,16024,-96,69,-94
389331105,-2816,-240,15976,-86,169,-53
389334574,-2772,-164,15868,-126,41,-76
389338044,-2892,-184,16024,-63,157,-66
389341539,-2776,-240,16120,-103,124,-82
389345071,-2860,-164,16048,-98,90,-65
389348454,-2836,-232,16024,-102,175,-46
389352011,-2848,-152,16032,-78,75,-58
389355394,-2868,-160,16036,-63,182,-51
389358864,-2760,-216,16048,-118,57,-70
389362334,-2876,-296,16008,-81,187,-45
389365808,-2808,-160,15992,-112,61,-86
389369323,-2864,-244,16160,-62,116,-56
389372745,-2868,-288,15968,-130,174,-65
389376301,-2820,-264,16036,-67,65,-78
389379684,-2792,-236,16028,-71,182,-74
389383154,-2840,-172,15936,-108,45,-53
389386624,-2844,-224,15992,-74,132,-42
389390095,-2784,-236,15940,-122,90,-85
389393588,-2696,-196,15936,-73,98,-70
389396948,-2852,-236,15992,-91,121,-74
389400418,-2748,-244,15964,-90,54,-73
389403801,-2744,-168,15980,-73,183,-80
389407271,-2852,-244,15960,-122,74,-83
389410776,-2812,-240,16032,-46,149,-59
389414211,-2820,-292,15828,-128,147,-51
389417792,-2808,-128,16180,-99,80,-78
389421151,-2832,-232,15832,-69,172,-40
389424621,-2780,-224,16036,-78,45,-51
389428004,-2808,-200,15944,-84,176,-83
389431474,-2764,-120,16192,-92,75,-57
389434857,-2788,-172,16008,-62,154,-66
389438327,-2796,-260,15912,-111,137,-72
389441909,-2684,-200,15988,-82,88,-82
389445267,-2892,-300,15932,-108,173,-71
389448824,-2876,-196,16068,-81,56,-56
389452208,-2816,-196,15992,-58,172,-77
389455678,-2844,-272,15948,-74,41,-51
389459061,-2776,-172,15872,-59,106,-56
389462531,-2772,-132,15904,-102,70,-62
389466004,-2848,-216,15912,-68,63,-78
389469433,-2792,-144,15952,-111,130,-46
389472941,-2816,-180,15968,-91,42,-56
389476324,-2792,-260,15928,-82,175,-38
389479794,-2840,-184,15928,-112,72,-84
389483264,-2700,-228,15868,-44,142,-56
389486734,-2808,-224,15848,-112,87,-70
389490204,-2824,-256,15900,-86,55,-39
389493610,-2848,-200,15964,-105,143,-71
389497144,-2836,-160,15988,-94,37,-54
389500527,-2808,-108,15936,-92,203,-62
389503997,-2740,-152,15980,-108,73,-68
389507467,-2788,-164,15828,-73,153,-60
389510972,-2880,-240,15872,-123,129,-69
389514494,-2816,-252,15920,-67,72,-77
389517902,-2828,-284,15936,-96,199,-78
389521347,-2832,-208,15912,-97,51,-57
389524731,-2912,-308,16020,-83,144,-50
389528200,-2788,-104,15936,-79,68,-41
389531584,-2864,-260,15980,-66,145,-60
389535054,-2828,-208,15940,-90,127,-75
389538524,-2820,-260,15980,-53,98,-32
389541932,-2860,-224,15856,-101,164,-86
389545464,-2932,-252,15984,-74,66,-44
389548847,-2732,-216,15832,-68,177,-59
389552317,-2944,-296,15976,-101,46,-47
389555787,-2804,-160,15976,-50,112,-31
389559257,-2720,-288,16004,-112,67,-33
389562727,-2900,-220,15992,-68,69,-46
389566114,-2800,-176,15840,-132,104,-54
389569728,-2872,-220,15932,-68,60,-48
389573050,-2828,-160,16016,-113,181,-68
389576607,-2828,-168,16096,-88,62,-62
389579990,-2760,-260,15960,-77,161,-34
389583460,-2920,-188,15876,-123,102,-101
389587104,-2684,-324,15960,-70,126,-46
389590574,-2780,-212,15948,-95,143,-71
389594067,-2816,-240,15920,-59,73,-67
389597427,-2816,-344,15888,-74,184,-51
389600897,-2808,-168,16112,-91,57,-70
389604280,-2872,-200,15956,-81,171,-79
389607750,-2808,-180,15860,-91,59,-59
389611168,-2780,-192,15924,-64,119,-52
389614603,-2868,-148,16028,-109,130,-71
389618185,-2736,-272,16024,-68,85,-49
389621544,-2792,-228,16004,-116,171,-74
389625100,-2772,-268,16004,-85,35,-60
389628484,-2772,-88,16036,-79,192,-37
389631867,-2772,-236,15940,-91,41,-78
389635250,-2780,-176,16000,-70,129,-41
389638720,-2828,-260,16188,-99,71,-90
389642128,-2840,-208,16052,-52,129,-46
389645573,-2732,-200,15972,-126,146,-75
389649130,-2844,-292,16020,-89,102,-60
389652600,-2824,-232,15912,-117,187,-65
389656157,-2768,-272,15952,-81,80,-60
389659540,-2864,-256,15924,-61,151,-70
389663010,-2748,-212,16064,-103,54,-81
389666528,-2848,-240,16032,-57,111,-76
389669950,-2828,-224,16000,-122,92,-68
389673420,-2824,-136,15892,-79,52,-65
389676803,-2880,-224,15916,-114,174,-56
389680360,-2744,-308,15960,-91,58,-63
389683743,-2808,-204,16056,-88,159,-72
389687213,-2756,-240,15936,-124,71,-66
389690687,-2808,-188,15932,-60,137,-70
389694177,-2812,-224,15956,-125,122,-55
389697710,-2864,-204,15964,-68,101,-54
389701180,-2748,-140,16008,-114,164,-66
389704737,-2836,-48,15980,-88,47,-44
389708033,-2828,-164,15780,-65,172,-35
389711538,-2820,-220,15984,-87,64,-77
389714886,-2780,-208,16084,-44,159,-70
389718381,-2824,-184,16024,-103,94,-73
389721826,-2808,-272,16072,-77,134,-46
389725297,-2784,-228,16040,-124,151,-65
389728853,-2772,-340,15972,-62,92,-51
389732236,-2864,-204,15880,-103,157,-69
389735793,-2880,-164,16188,-85,58,-19
389739176,-2772,-176,16168,-56,173,-64
389742671,-2856,-168,15984,-118,62,-56
389746117,-2792,-144,15876,-71,91,-34
389749500,-2740,-188,15920,-113,101,-75
389753056,-2828,-176,16092,-92,76,-52
389756440,-2808,-176,16012,-108,161,-90
389759996,-2812,-244,16036,-108,58,-38
389763466,-2856,-248,15980,-87,171,-73
389766985,-2760,-184,16060,-102,80,-77
389770407,-2860,-220,15884,-58,162,-49
389773876,-2832,-224,15840,-115,116,-72
389777433,-2868,-224,16004,-77,101,-54
389780903,-2832,-180,15880,-109,173,-77
389784460,-2788,-168,15952,-66,71,-42
389787843,-2832,-212,16000,-73,157,-50
389791336,-2740,-188,15948,-104,45,-67
389794783,-2948,-200,15964,-46,114,-68
389798253,-2836,-112,15884,-131,84,-81
389801723,-2780,-168,15872,-77,44,-75
389805107,-2828,-276,15828,-114,152,-73
389808663,-2884,-200,15936,-80,47,-78
389812081,-2896,-232,16072,-71,185,-45
389815517,-2812,-172,16108,-102,55,-56
389819011,-2720,-68,15944,-77,136,-63
389822370,-2880,-188,15984,-111,76,-94
389825840,-2720,-168,16028,-83,72,-65
389829223,-2816,-216,15820,-108,127,-43
389832780,-2792,-136,16076,-92,57,-85
389836163,-2704,-152,16064,-138,178,-42
389839720,-2692,-180,16032,-93,60,-64
389843128,-2816,-240,16028,-82,155,-36
389846573,-2680,-148,15792,-134,115,-64
389850130,-2728,-212,15988,-66,124,-73
389853600,-2772,-188,15908,-122,162,-48
389857157,-2752,-240,16004,-80,108,-63
389860627,-2812,-252,15816,-59,146,-58
389864097,-2840,-148,15936,-113,45,-68
389867615,-2800,-316,15972,-48,120,-46
389871036,-2876,-192,16020,-115,101,-52
389874593,-2844,-276,16044,-101,51,-48
389878063,-2792,-216,15940,-89,184,-68
389881533,-2820,-284,15928,-91,73,-88
389884916,-2748,-368,16076,-83,164,-56
389888387,-2736,-212,16132,-107,97,-73
389891880,-2792,-184,15960,-52,104,-71
389895327,-2828,-220,15936,-100,157,-76
389898883,-2884,-160,15972,-73,60,-42
389902267,-2724,-240,15948,-114,166,-76
389905823,-2768,-208,15892,-81,32,-46
389909207,-2820,-208,16096,-85,177,-68
389912711,-2804,-92,15864,-98,56,-98
389915976,-2788,-276,16012,-77,135,-36
389919468,-2884,-200,15940,-120,129,-58
389923000,-2780,-204,15888,-63,60,-86
389926383,-2872,-192,15964,-111,157,-57
389929940,-2888,-212,15916,-86,63,-60
389933323,-2816,-188,16108,-48,127,-70
389936793,-2824,-260,15928,-115,49,-88
389940263,-2768,-116,15828,-57,76,-56
389943671,-2788,-128,15900,-108,149,-99
389947203,-2740,-184,15992,-95,31,-52
389950586,-2776,-224,15876,-86,190,-49
389954056,-2868,-228,15908,-111,47,-52
389957526,-2736,-204,15904,-78,141,-59
389960996,-2772,-164,15880,-97,71,-77
389964380,-2780,-120,16024,-95,78,-77
389967812,-2844,-240,16000,-108,130,-72
389971320,-2868,-216,15980,-92,74,-58
389974703,-2940,-252,16064,-100,162,-77
389978259,-2920,-248,15960,-104,69,-61
389981729,-2748,-328,16040,-69,150,-54
389985199,-2876,-132,16032,-121,122,-101
389988843,-2788,-244,16016,-69,119,-73
389992336,-2812,-284,15848,-104,172,-48
389995870,-2772,-164,16112,-73,51,-49
389999253,-2800,-188,15836,-48,172,-60
390002723,-2900,-228,16008,-110,39,-67
390006193,-2824,-120,15780,-61,106,-65
390009663,-2692,-208,15964,-114,60,-74
390013168,-2744,-244,16108,-56,62,-60
390016541,-2824,-312,16080,-137,160,-89
390020073,-2740,-200,15836,-80,28,-67
390023456,-2844,-116,15916,-101,181,-55
390027013,-2736,-156,16016,-117,45,-59
390030483,-2760,-156,15936,-75,159,-32
390033953,-2816,-208,15892,-109,93,-81
390037423,-2808,-172,16056,-72,106,-39
390040897,-2708,-212,16036,-115,163,-69
390044474,-2784,-240,16092,-103,59,-71
390047920,-2848,-148,16040,-73,175,-65
390051390,-2864,-192,16072,-82,56,-32
390054773,-2756,-220,15980,-49,121,-53
390058243,-2792,-220,15816,-99,89,-66
390061626,-2820,-268,16036,-59,116,-49
390065096,-2912,-292,16068,-117,158,-85
390068755,-2760,-220,15952,-92,60,-59
390072036,-2764,-204,16036,-91,161,-63
390075506,-2832,-192,16004,-69,55,-81
390078889,-2796,-264,16004,-50,114,-44
390082360,-2772,-180,15920,-117,81,-62
390085829,-2696,-332,16036,-48,90,-41
390089213,-2772,-244,16044,-135,105,-54
390092793,-2808,-252,15848,-90,50,-41
390096153,-2820,-280,15952,-113,182,-80
390099709,-2856,-188,15992,-78,71,-68
390103093,-2880,-204,16056,-85,137,-14
390106563,-2844,-272,15856,-90,105,-100
390110120,-2728,-188,15900,-86,85,-56
390113542,-2776,-288,16044,-101,159,-71
390117084,-2792,-128,15952,-62,58,-60
390120443,-2804,-276,15860,-73,149,-41
390123913,-2772,-272,16096,-82,64,-61
390127296,-2692,-260,15944,-46,172,-82
390130766,-2908,-240,15968,-100,107,-82
390134323,-2824,-172,15996,-54,119,-77
390137793,-2920,-220,15940,-117,173,-51
390141374,-2836,-248,16012,-102,42,-73
390144820,-2768,-160,15996,-82,198,-62
390148289,-2832,-204,16012,-74,50,-58
390151673,-2688,-252,16008,-64,132,-57
390155143,-2760,-32,16172,-113,82,-57
390158526,-2868,-228,15964,-69,78,-42
390161909,-2868,-284,16052,-111,136,-63
390165466,-2888,-320,16024,-90,32,-74
390168898,-2808,-272,15860,-81,158,-73
390172319,-2808,-312,16052,-116,53,-72
390175789,-2856,-236,15936,-46,146,-62
390179259,-2828,-192,15904,-102,115,-53
390182816,-2868,-200,15932,-66,87,-56
390186199,-2824,-220,15932,-125,170,-53
390189756,-2712,-260,15868,-90,70,-48
390193163,-2816,-316,16016,-71,141,-59
390196609,-2752,-240,15980,-91,52,-79
390199992,-2832,-212,15992,-76,129,-49
390203463,-2840,-260,15816,-132,122,-66
390207019,-2732,-236,15940,-57,89,-63
390210402,-2792,-216,15936,-100,156,-59
390213994,-2840,-264,16084,-102,40,-53
390217454,-2748,-184,15956,-68,163,-49
390220899,-2860,-248,15816,-97,43,-108
390224369,-2824,-284,15952,-51,111,-47
390227839,-2788,-212,15996,-120,82,-51
390231309,-2736,-232,16036,-65,82,-62
390234693,-2804,-196,16068,-104,145,-64
390238249,-2772,-144,15884,-98,49,-74
390241657,-2768,-204,16024,-86,191,-43
390245102,-2860,-192,15932,-96,79,-70
390248486,-2840,-188,16080,-51,152,-64
390251956,-2776,-184,15832,-126,99,-59
390255426,-2828,-148,15860,-76,89,-96
390258809,-2816,-180,15968,-117,110,-54
390262366,-2768,-204,16004,-90,37,-56
390265752,-2952,-204,16024,-114,170,-52
390269354,-2780,-252,15928,-98,51,-78
390272689,-2844,-188,15988,-51,176,-45
390276159,-2872,-240,15972,-132,93,-65
390279629,-2804,-192,16024,-77,115,-69
390283099,-2816,-136,16056,-122,150,-34
390286656,-2792,-116,16044,-72,86,-68
390290039,-2776,-176,16000,-95,159,-72
390293532,-2752,-228,15892,-100,67,-50
390296979,-2800,-216,15976,-60,161,-52
390300449,-2796,-340,15968,-110,27,-62
390303919,-2812,-224,15908,-59,108,-78
390307389,-2884,-260,15944,-99,100,-62
390310859,-2824,-192,15952,-91,69,-38
390314277,-2656,-272,15948,-134,155,-82
390317824,-2840,-192,15880,-85,42,-89
390321182,-2824,-172,15972,-76,172,-53
390324652,-2764,-208,16024,-111,53,-86
390328122,-2812,-188,16028,-73,127,-53
390331592,-2796,-272,16060,-85,63,-80
390334976,-2756,-248,16072,-79,76,-76
390338359,-2864,-204,15960,-137,126,-64
390341940,-2780,-224,15924,-83,72,-67
390345299,-2732,-176,15984,-73,186,-69
390348769,-2760,-184,15916,-133,30,-54
390352239,-2812,-136,15896,-40,147,-41
390355709,-2748,-204,15984,-102,134,-60
390359266,-2776,-284,15860,-74,94,-69
390362649,-2768,-204,15968,-68,186,-64
390366167,-2948,-140,15860,-98,32,-89
390369502,-2736,-212,16108,-60,120,-40
390372972,-2744,-168,15972,-113,79,-91
390376442,-2836,-192,16004,-52,68,-67
390379825,-2868,-228,15860,-124,129,-44
390383382,-2844,-308,15952,-46,106,-64
390386852,-2772,-216,15952,-91,154,-54
390390322,-2844,-288,15988,-87,76,-59
390393729,-2820,-256,16052,-62,170,-57
390397175,-2836,-288,16028,-78,56,-43
390400558,-2644,-172,15940,-63,116,-60
390404029,-2880,-268,16036,-116,78,-78
390407498,-2856,-184,16172,-90,105,-58
390410968,-2716,-172,15940,-107,130,-73
390414560,-2932,-164,16000,-85,35,-44
390417933,-2952,-184,16000,-107,174,-43
390421465,-2856,-212,15900,-104,51,-58
390424935,-2780,-168,15984,-58,140,-54
390428405,-2796,-152,15948,-96,121,-73
390431875,-2712,-392,15976,-56,114,-60
390435345,-2740,-232,15880,-108,169,-71
390438902,-2784,-188,15992,-71,56,-62
390442310,-2728,-220,15972,-50,184,-73
390445755,-2860,-212,15912,-113,28,-43
390449225,-2744,-256,15912,-88,129,-47
390452695,-2812,-180,16084,-99,74,-53
390456078,-2804,-196,16024,-60,112,-45
390459548,-2780,-232,15904,-118,142,-66
390463105,-2804,-196,16020,-90,57,-42
390466537,-2708,-208,16048,-95,186,-99
390469958,-2908,-148,15944,-74,53,-73
390473342,-2860,-176,15948,-63,139,-56
390476812,-2772,-228,15980,-96,81,-86
390480195,-2804,-280,15868,-76,101,-72
390483665,-2760,-260,15952,-80,96,-83
390487048,-2788,-188,15968,-82,60,-75
390490431,-2780,-116,16060,-132,173,-79
390494016,-2820,-296,15844,-102,56,-70
390497458,-2732,-208,16116,-84,178,-58
390500928,-2812,-212,15876,-122,51,-71
390504398,-2824,-276,15972,-61,100,-60
390507868,-2832,-184,16036,-108,98,-70
390511338,-2852,-148,15984,-83,62,-56
390514756,-2884,-256,15972,-100,140,-71
390518303,-2688,-248,16088,-100,47,-85
390521748,-2812,-280,16056,-54,166,-51
390525218,-2748,-312,15832,-120,92,-67
390528688,-2792,-220,15912,-60,104,-43
390532158,-2836,-272,15772,-111,159,-65
390535715,-2760,-236,15948,-88,63,-71
390539098,-2840,-308,15972,-69,154,-46
390542593,-2792,-248,16012,-94,72,-64
390545952,-2860,-256,16200,-79,132,-54
390549421,-2840,-232,15972,-103,68,-64
390552892,-2796,-292,15856,-90,80,-65
390556275,-2816,-268,16112,-124,169,-69
390559832,-2844,-172,15908,-93,44,-83
390563215,-2780,-140,15872,-64,168,-71
390566745,-2792,-216,15796,-101,64,-97
390570155,-2908,-324,16032,-59,143,-63
390573625,-2824,-248,16100,-104,61,-86
390577095,-2760,-248,16088,-65,99,-65
390580478,-2820,-244,15900,-128,120,-58
390584035,-2812,-160,15820,-77,40,-42
390587418,-2852,-132,16032,-108,187,-50
390590978,-2868,-244,16040,-94,44,-68
390594381,-2852,-244,15920,-86,164,-77
390597828,-2804,-120,16024,-112,94,-86
390601298,-2848,-264,16140,-67,106,-52
390604768,-2864,-212,15980,-95,206,-13
390608238,-2876,-216,16072,-82,26,-73
390611621,-2812,-236,15928,-75,179,-54
390615126,-2740,-164,16136,-97,67,-59
390618499,-2864,-196,16164,-60,172,-72
390621945,-2844,-172,15992,-119,55,-88
390625415,-2784,-300,15984,-46,152,-12
390628885,-2716,-124,16048,-112,138,-57
390632441,-2828,-228,15956,-73,68,-46
390635825,-2812,-172,15960,-81,159,-51
390639295,-2852,-256,16152,-88,33,-73
390642702,-2780,-216,16008,-31,139,-49
390646148,-2872,-220,16100,-115,54,-70
390649618,-2852,-340,16028,-62,108,-53
390653088,-2752,-216,16016,-119,105,-60
390656644,-2840,-264,15872,-63,74,-57
390660028,-2920,-164,15980,-121,177,-57
390663584,-2800,-276,16036,-79,39,-95
390667016,-2912,-240,15892,-70,175,-60
390670438,-2868,-228,15968,-122,92,-38
390673908,-2824,-272,16104,-57,103,-65
390677378,-2824,-300,16012,-117,167,-66
390680934,-2756,-276,15920,-62,67,-70
390684318,-2744,-140,15848,-95,193,-62
390687788,-2756,-168,16036,-106,68,-86
390691281,-2820,-156,15980,-64,140,-41
390694728,-2760,-268,15964,-104,73,-63
390698198,-2752,-212,15820,-68,162,-74
390701668,-2844,-168,16096,-115,111,-45
390705224,-2888,-264,15936,-118,55,-74
390708695,-2776,-64,16072,-86,172,-78
390712078,-2812,-208,15976,-100,50,-82
390715586,-2776,-216,15924,-42,157,-67
390719042,-2812,-108,15968,-100,54,-75
390722488,-2832,-368,15876,-64,121,-30
390725958,-2728,-232,16024,-112,93,-65
390729428,-2764,-196,16072,-84,70,-74
390732811,-2836,-192,16012,-108,150,-64
390736368,-2760,-256,16040,-84,35,-96
390739751,-2792,-164,15888,-71,172,-63
390743246,-2796,-316,16028,-107,73,-60
390746691,-2700,-268,15992,-54,135,-43
390750161,-2840,-272,15976,-129,123,-103
390753805,-2840,-156,15856,-69,89,-57
390757188,-2780,-272,15916,-81,189,-58
390760658,-2840,-220,15924,-93,49,-72
390764041,-2640,-216,15964,-80,122,-22
390767559,-2828,-176,16104,-102,72,-80
390770981,-2748,-144,16008,-84,77,-78
390774364,-2684,-296,16024,-115,188,-45
390777921,-2812,-292,15952,-86,36,-67
390781304,-2804,-212,16012,-88,192,-52
390784774,-2844,-240,16024,-96,60,-73
390788158,-2816,-212,16004,-46,114,-53
390791651,-2804,-276,16052,-113,48,-77
390795098,-2748,-172,16032,-48,72,-50
390798481,-2852,-252,15944,-114,132,-52
390802038,-2924,-116,15952,-94,52,-41
390805421,-2824,-236,16004,-114,173,-62
390808977,-2844,-192,15960,-119,85,-67
390812448,-2900,-248,16068,-54,163,-75
390815953,-2880,-220,15808,-121,114,-56
390819499,-2816,-180,16064,-56,97,-63
390822857,-2856,-120,15916,-89,169,-61
390826327,-2860,-248,15952,-95,86,-61
390829711,-2772,-200,16024,-47,140,-53
390833181,-2856,-300,16072,-106,51,-74
390836651,-2716,-200,15960,-71,169,-62
390840121,-2796,-184,15904,-94,111,-73
390843615,-2740,-192,16012,-71,104,-72
390847061,-2740,-220,15932,-96,204,-64
390850531,-2872,-220,15904,-92,72,-56
390853914,-2884,-220,15884,-69,165,-84
390857384,-2868,-224,16016,-99,28,-82
390860767,-2800,-204,16108,-67,100,-43
390864237,-2784,-188,15908,-116,106,-110
390867929,-2812,-244,16068,-86,41,-70
390871264,-2800,-288,15996,-100,223,-85
390874821,-2732,-148,15844,-81,49,-72
390878204,-2864,-232,16000,-103,187,-56
390881761,-2660,-248,15980,-119,97,-78
390885231,-2800,-184,15992,-62,146,-54
390888701,-2680,-172,15948,-110,143,-91
390892281,-2740,-256,15904,-62,77,-35
390895641,-2916,-276,15916,-81,172,-70
390899111,-2800,-132,15952,-89,50,-80
390902494,-2708,-116,15928,-70,139,-34
390905964,-2812,-204,16012,-82,64,-58
390909347,-2772,-288,15960,-70,151,-28
390912817,-2820,-160,16024,-103,116,-77
390916417,-2736,-248,15980,-80,57,-55
390919757,-2740,-212,15936,-119,166,-65
390923314,-2844,-216,16084,-59,56,-46
390926697,-2880,-228,15820,-90,164,-56
390930167,-2840,-120,15984,-65,40,-74
390933551,-2832,-248,15964,-40,116,-40
390937020,-2788,-268,15968,-118,87,-63
390940490,-2760,-180,15916,-94,81,-62
390943898,-2748,-256,15952,-97,137,-58
390947344,-2836,-216,15976,-96,58,-51
390950727,-2828,-188,16016,-69,186,-71
390954197,-2900,-160,15880,-100,54,-58
390957667,-2848,-216,15960,-78,177,-42
390961137,-2844,-184,15840,-91,28,-73
390964520,-2776,-260,15964,-77,100,-48
390968040,-2824,-196,15936,-125,104,-80
390971547,-2792,-184,15992,-65,60,-65
390974930,-2804,-268,16084,-128,150,-79
390978487,-2924,-248,16020,-95,64,-44
390981870,-2828,-204,15996,-64,183,-46
390985340,-2796,-264,16112,-95,73,-79
390988724,-2796,-248,15984,-69,116,-59
390992218,-2800,-212,15928,-108,149,-61
390995750,-2816,-248,15912,-86,75,-32
390999133,-2740,-252,15948,-75,186,-62
391002604,-2796,-128,16064,-91,61,-56
391005987,-2784,-224,16136,-66,201,-54
391009457,-2860,-192,16012,-127,75,-74
391012927,-2872,-228,15972,-47,153,-60
391016438,-2692,-252,16016,-97,126,-79
391019867,-2808,-244,16024,-78,95,-57
391023250,-2724,-188,16132,-101,166,-44
391026807,-2752,-228,16012,-84,52,-87
391030190,-2836,-244,16088,-68,149,-39
391033660,-2776,-316,15924,-81,70,-90
391037043,-2648,-224,15892,-74,109,-54
391040513,-2808,-260,15912,-106,87,-42
391044008,-2924,-236,16008,-79,67,-45
391047367,-2704,-236,16000,-146,168,-102
391051010,-2852,-272,16056,-86,59,-39
391054393,-2784,-260,15880,-83,189,-37
391057863,-2852,-164,15996,-104,79,-51
391061333,-2736,-220,15964,-70,113,-30
391064803,-2784,-192,16088,-128,151,-61
391068462,-2868,-200,15936,-70,69,-61
391071743,-2876,-212,15984,-57,201,-62
391075213,-2792,-220,15936,-105,46,-60
391078683,-2892,-260,15848,-93,168,-98
391082153,-2908,-232,15804,-103,72,-45
391085623,-2836,-324,15960,-52,145,-73
391089093,-2884,-104,15936,-123,127,-68
391092674,-2836,-184,15880,-82,65,-46
391096033,-2764,-156,16028,-96,179,-43
391099503,-2864,-148,16060,-87,60,-65
391102886,-2724,-192,15980,-62,143,-64
391106356,-2848,-236,15896,-91,55,-72
391109740,-2740,-156,15864,-52,84,-73
391113123,-2844,-268,15928,-119,110,-67
391116725,-2824,-212,15944,-89,56,-79
391120063,-2816,-240,16040,-85,189,-53
391123533,-2876,-184,16028,-112,55,-74
391127003,-2756,-176,15940,-70,160,-49
391130473,-2812,-292,16100,-119,36,-75
391133943,-2736,-172,15852,-64,120,-71
391137413,-2888,-260,16000,-138,102,-39
391140973,-2792,-320,15964,-83,55,-54
391144378,-2844,-176,16104,-104,148,-82
391147910,-2772,-260,16008,-89,62,-64
391151293,-2816,-200,15992,-95,189,-48
391154763,-2740,-216,15916,-127,69,-51
391158233,-2792,-308,15912,-55,178,-38
391161703,-2724,-216,16000,-119,97,-64
391165173,-2780,-148,16024,-64,121,-45
391168691,-2780,-164,16048,-111,144,-66
391172200,-2832,-268,15992,-71,49,-76
391175583,-2912,-288,15928,-63,178,-53
391179053,-2828,-172,15944,-95,65,-57
391182436,-2832,-216,15912,-60,151,-45
391185906,-2956,-244,16004,-114,56,-67
391189376,-2912,-264,15992,-77,81,-72
391192784,-2796,-208,16048,-114,108,-100
391196403,-2780,-120,16004,-79,33,-54
391199786,-2732,-236,16056,-101,152,-44
391203343,-2776,-312,16056,-101,55,-89
391206813,-2864,-176,16080,-75,166,-60
391210283,-2800,-116,15892,-104,59,-37
391213753,-2876,-212,15908,-66,153,-58
391217265,-2872,-240,16012,-96,137,-47
391220693,-2884,-292,15880,-82,69,-48
391224076,-2748,-284,16004,-109,128,-53
391227633,-2852,-252,16084,-88,69,-69
391231016,-2836,-244,15956,-96,166,-61
391234486,-2808,-284,16016,-89,71,-71
391237870,-2792,-220,15936,-76,172,-41
391241364,-2716,-192,15872,-87,114,-66
391244810,-2792,-228,15976,-66,88,-61
391248193,-2752,-204,16032,-112,179,-54
391251750,-2792,-164,16004,-99,46,-58
391255133,-2908,-128,16040,-74,180,-35
391258603,-2796,-136,15944,-98,45,-59
391261986,-2808,-160,15948,-69,116,-46
391265456,-2888,-180,15968,-98,70,-47
391268888,-2768,-184,16016,-66,118,-78
391272309,-2748,-252,15844,-122,144,-75
391275866,-2684,-216,16100,-72,82,-81
391279249,-2752,-256,16072,-88,181,-54
391282719,-2768,-196,15884,-103,59,-70
391286189,-2864,-176,15976,-62,141,-54
391289659,-2904,-176,15888,-99,80,-71
391293067,-2732,-244,16128,-57,81,-56
391296426,-2776,-216,16020,-134,128,-69
391299983,-2816,-228,15892,-102,77,-77
391303453,-2844,-184,16032,-78,175,-52
391306922,-2752,-200,15908,-101,59,-70
391310393,-2832,-264,16128,-72,149,-67
391313863,-2776,-248,16040,-115,127,-55
391317461,-2808,-272,16016,-81,78,-53
391320803,-2792,-200,16164,-68,180,-57
391324272,-2908,-172,16176,-91,63,-83
391327656,-2732,-228,16008,-114,168,-43
391331213,-2800,-172,16036,-94,53,-70
391334596,-2792,-164,16092,-64,191,-62
391338066,-2884,-220,15888,-112,89,-46
391341560,-2800,-216,15968,-71,121,-41
391345006,-2840,-192,16024,-122,159,-54
391348562,-2916,-236,15988,-84,70,-59
391351946,-2868,-240,16060,-84,203,-83
391355416,-2748,-184,15960,-115,62,-68
391358886,-2896,-248,15916,-82,136,-66
391362356,-2780,-156,16008,-68,59,-58
391365743,-2760,-280,15960,-81,109,-47
391369257,-2756,-256,15944,-111,130,-70
391372766,-2868,-188,15940,-80,51,-65
391376149,-2744,-244,15860,-115,181,-53
391379706,-2760,-224,16040,-92,47,-62
391383089,-2772,-260,15992,-54,159,-55
391386559,-2784,-160,15880,-125,115,-56
391390116,-2772,-148,16040,-68,95,-51
391393524,-2760,-296,15924,-113,180,-54
391397056,-2808,-268,16000,-90,63,-41
391400439,-2812,-200,15844,-53,169,-58
391403909,-2788,-168,16008,-100,53,-116
391407466,-2884,-108,16064,-51,131,-57
391410936,-2732,-192,16024,-100,83,-68
391414406,-2828,-184,16048,-39,82,-84
391417830,-2676,-200,15952,-100,114,-59
391421346,-2688,-216,15984,-76,104,-36
391424816,-2832,-172,15952,-101,173,-61
391428373,-2772,-208,15976,-102,87,-75
391431843,-2856,-200,16144,-52,166,-61
391435313,-2844,-220,15968,-111,124,-93
391438869,-2696,-224,16100,-72,114,-42
391442364,-2852,-144,16040,-107,182,-55
391445896,-2812,-276,16016,-65,59,-48
391449279,-2792,-232,16024,-57,169,-47
391452749,-2812,-212,15904,-112,43,-88
391456219,-2808,-268,15984,-37,110,-60
391459689,-2808,-264,15984,-113,87,-75
391463159,-2868,-164,15936,-82,135,-71
391466678,-2792,-244,16020,-143,153,-52
391470186,-2848,-172,16092,-61,32,-51
391473569,-2796,-332,15992,-79,176,-58
391477039,-2812,-128,16012,-95,64,-60
391480423,-2904,-296,15888,-43,149,-46
391483892,-2748,-148,15944,-113,69,-79
391487362,-2908,-200,16048,-64,104,-34
391490836,-2820,-188,15924,-97,97,-84
391494240,-2728,-276,15856,-80,47,-72
391497599,-2728,-236,16052,-97,147,-59
391501069,-2840,-256,15996,-103,50,-94
391504539,-2896,-264,16100,-72,174,-56
391508009,-2868,-236,15872,-130,68,-63
391511479,-2780,-292,16080,-64,124,-56
391514949,-2824,-112,15904,-107,79,-85
391518461,-2888,-228,16104,-93,57,-60
391521802,-2848,-316,16052,-100,153,-52
391525359,-2788,-168,15904,-99,45,-102
391528829,-2800,-220,15964,-65,169,-44
391532299,-2820,-240,15904,-119,68,-75
391535769,-2748,-240,16040,-67,139,-65
391539239,-2848,-200,15960,-108,168,-84
391542820,-2784,-172,15948,-71,95,-41
391546179,-2772,-224,15916,-87,188,-52
391549649,-2824,-188,15940,-96,37,-76
391553032,-2860,-200,16056,-61,136,-67
391556502,-2800,-244,15960,-108,60,-30
391559972,-2864,-220,15828,-60,92,-80
391563355,-2868,-260,15984,-113,129,-48
391566973,-2852,-196,16020,-74,56,-88
391570296,-2776,-248,16052,-101,181,-70
391573852,-2836,-260,15980,-109,73,-32
391577322,-2856,-184,15996,-81,160,-61
391580792,-2780,-200,15856,-125,109,-53
391584349,-2856,-200,16136,-33,127,-63
391587819,-2820,-280,15924,-132,148,-68
391591400,-2772,-212,15996,-52,74,-63
391594759,-2792,-228,16024,-90,166,-56
391598229,-2872,-240,16048,-102,59,-41
391601699,-2716,-148,15936,-62,124,-75
391605169,-2728,-152,15940,-107,78,-54
391608639,-2816,-148,16032,-59,61,-55
391612022,-2828,-132,15932,-136,166,-66
391615582,-2752,-184,15968,-85,66,-60
391619004,-2764,-260,16056,-77,202,-65
391622432,-2864,-240,15944,-94,50,-70
391625815,-2836,-380,15924,-64,150,-55
391629285,-2788,-208,15920,-100,49,-69
391632755,-2724,-144,15944,-79,86,-64
391636139,-2708,-192,15832,-114,127,-77
391639695,-2876,-312,16152,-96,65,-63
391643103,-2796,-220,16076,-83,171,-65
391646549,-2804,-252,15980,-92,33,-66
391649932,-2828,-236,15968,-59,172,-34
391653402,-2764,-188,15976,-130,64,-64
391656872,-2884,-220,15964,-56,135,-75
391660342,-2752,-100,15932,-127,85,-80
391663812,-2796,-264,15944,-95,63,-57
391667244,-2844,-232,15920,-130,158,-84
391670752,-2844,-200,15980,-115,67,-68
391674222,-2756,-160,15876,-64,159,-62
391677692,-2832,-164,15972,-98,69,-68
391681075,-2700,-224,16012,-72,141,-64
391684545,-2800,-140,15812,-120,168,-65
391688102,-2792,-204,15960,-85,81,-68
391691510,-2888,-268,16012,-73,179,-30
391694955,-2876,-188,16084,-87,35,-81
391698339,-3044,-300,15964,-70,124,-68
391701808,-2872,-172,16132,-114,66,-84
391705278,-2732,-216,15988,-107,74,-53
391708749,-2876,-176,15856,-107,140,-55
391712305,-2808,-164,16032,-60,39,-56
391715692,-2772,-240,16008,-69,173,-76
391719200,-2672,-232,16008,-96,67,-59
391722542,-2764,-276,15884,-35,164,-61
391726012,-2764,-196,15936,-112,47,-67
391729482,-2796,-176,16124,-80,120,-47
391732952,-2848,-156,16028,-120,115,-90
391736509,-2776,-204,15996,-76,70,-58
391739892,-2832,-116,15988,-106,180,-74
391743473,-2764,-116,15948,-108,58,-58
391746919,-2832,-200,15932,-53,156,-61
391750389,-2800,-192,15904,-120,78,-78
391753859,-2740,-272,16080,-60,98,-45
391757242,-2804,-232,15988,-106,193,-77
391760798,-2784,-188,15936,-89,64,-55
391764182,-2840,-196,16004,-58,184,-54
391767700,-2796,-128,15904,-64,44,-68
391771035,-2776,-144,15908,-80,135,-52
391774505,-2752,-172,15936,-83,67,-60
391777888,-2888,-268,15888,-67,114,-75
391781358,-2788,-168,16100,-105,152,-45
391784915,-2724,-164,15848,-95,57,-57
391788298,-2804,-152,16028,-62,129,-47
391791793,-2848,-220,16000,-94,54,-50
391795152,-2936,-260,16000,-57,76,-58
391798535,-2800,-284,16044,-103,97,-51
391802005,-2884,-240,15968,-103,75,-41
391805475,-2788,-188,16000,-109,175,-74
391809031,-2784,-260,16004,-91,68,-77
391812415,-2760,-156,15904,-104,187,-59
391815975,-2812,-228,16024,-105,65,-77
391819483,-2828,-172,15976,-45,127,-40
391822911,-2876,-156,15936,-112,142,-55
391826468,-2812,-216,16024,-73,79,-49
391829851,-2780,-216,16056,-90,152,-89
391833322,-2800,-260,15848,-84,81,-55
391836705,-2800,-312,16060,-101,195,-88
391840261,-2820,-200,15996,-91,49,-86
391843669,-2848,-132,15856,-45,142,-51
391847115,-2844,-220,15928,-122,143,-78
391850672,-2768,-284,15980,-77,70,-68
391854055,-2788,-192,15920,-83,167,-49
391857525,-2920,-228,15872,-107,49,-50
391860995,-2800,-264,16024,-80,155,-72
391864465,-2908,-240,15988,-92,56,-70
391867896,-2868,-148,16012,-72,84,-41
391871231,-2856,-188,15952,-113,122,-55
391874788,-2768,-288,15996,-95,47,-98
391878171,-2856,-300,16000,-120,168,-74
391881728,-2604,-232,16024,-86,61,-57
391885111,-2844,-256,16000,-85,184,-75
391888581,-2796,-280,15852,-122,60,-73
391892076,-2912,-256,16148,-74,115,-55
391895521,-2796,-244,16056,-126,138,-55
391899078,-2804,-272,15948,-82,77,-60
391902461,-2804,-204,15880,-119,164,-84
391906018,-2812,-200,15956,-94,28,-54
391909401,-2876,-268,16032,-106,171,-68
391912958,-2848,-284,16080,-114,62,-72
391916451,-2904,-300,16060,-93,73,-54
391919846,-2824,-232,16076,-116,141,-71
391923368,-2748,-212,16016,-70,77,-56
391926751,-2840,-240,15936,-91,158,-49
391930221,-2728,-232,15944,-85,65,-37
391933605,-2844,-256,15908,-63,136,-69
391937075,-2824,-260,15896,-111,73,-53
391940548,-2868,-152,15992,-65,87,-49
391943952,-2900,-104,15780,-139,102,-78
391947485,-2828,-188,15968,-95,69,-73
391950868,-2824,-212,15928,-105,160,-63
391954424,-2764,-208,15968,-87,58,-55
391957808,-2728,-188,15972,-82,177,-73
391961278,-2804,-204,15920,-92,34,-61
391964661,-2840,-264,16024,-74,122,-56
391968180,-2836,-108,16080,-117,92,-66
391971601,-2772,-332,15872,-74,70,-48
391974984,-2772,-160,16068,-118,152,-64
391978541,-2744,-244,15992,-88,46,-60
391981924,-2744,-132,15988,-94,189,-44
391985394,-2812,-196,15968,-109,95,-53
391988864,-2748,-232,15964,-44,125,-59
391992359,-2832,-212,16036,-135,125,-63
391995891,-2796,-192,16148,-79,76,-44
391999274,-2764,-212,15856,-71,191,-65
392002744,-2792,-308,15928,-76,85,-65
392006127,-2792,-192,16136,-60,154,-47
392009597,-2828,-248,16088,-116,81,-54
392013068,-2732,-248,15944,-70,152,-49
392016561,-2780,-116,16036,-115,113,-75
392020129,-2676,-228,16024,-68,58,-77
392023478,-2800,-188,15880,-134,166,-56
392027034,-2740,-232,16088,-76,71,-51
392030417,-2820,-188,16048,-67,183,-27
392033888,-2752,-180,16016,-99,55,-69
392037271,-2752,-232,15896,-60,153,-70
392040744,-2812,-272,15872,-102,75,-84
392044235,-2776,-212,16048,-55,103,-26
392047681,-2832,-232,15860,-92,104,-69
392051151,-2804,-236,15968,-96,62,-68
392054534,-2812,-192,15932,-93,174,-76
392058004,-2896,-120,16000,-85,63,-72
392061387,-2704,-156,15940,-75,154,-60
392064857,-2820,-208,15940,-131,77,-77
392068430,-2856,-316,16032,-68,74,-73
392071711,-2804,-264,15888,-103,165,-66
392075267,-2852,-200,15936,-84,62,-67
392078651,-2816,-208,15892,-70,161,-51
392082120,-2880,-220,15860,-103,84,-61
392085591,-2792,-232,15928,-56,107,-78
392089060,-2796,-188,15908,-114,172,-66
392092647,-2824,-272,16024,-77,57,-58
392096001,-2904,-212,15976,-67,173,-69
392099470,-2696,-248,16180,-97,58,-64
392102854,-2804,-188,15800,-58,146,-47
392106324,-2832,-260,15956,-117,81,-45
392109794,-2756,-368,15960,-61,92,-82
392113177,-2856,-176,16020,-117,138,-55
392116757,-2892,-208,15912,-96,62,-79
392120159,-2732,-172,16016,-98,191,-39
392123587,-2964,-248,15884,-120,43,-46
392127057,-2756,-144,16092,-54,166,-73
392130527,-2848,-92,16096,-114,46,-79
392133910,-2804,-308,15864,-83,118,-53
392137380,-2848,-236,15884,-129,112,-40
392140941,-2836,-340,16020,-66,64,-48
392144345,-2848,-208,15992,-104,171,-82
392147877,-2820,-204,15888,-99,65,-75
392151260,-2924,-168,15852,-62,171,-37
392154730,-2792,-128,15960,-128,92,-77
392158200,-2912,-164,16068,-67,94,-51
392161583,-2896,-284,16036,-124,146,-66
392165140,-2832,-156,15824,-73,71,-59
392168572,-2820,-196,15932,-88,178,-49
392171994,-2812,-232,15808,-82,73,-63
392175377,-2844,-156,16052,-96,170,-48
392178847,-2944,-192,15900,-109,78,-96
392182317,-2772,-184,16012,-57,161,-53
392185787,-2904,-212,16140,-117,105,-45
392189343,-2920,-268,16020,-40,104,-45
392192838,-2772,-200,15928,-94,137,-64
392196284,-2716,-240,15992,-105,66,-39
392199754,-2836,-192,16064,-71,186,-73
392203223,-2816,-256,15960,-106,57,-69
392206694,-2824,-188,16008,-74,111,-66
392210164,-2812,-208,15932,-95,92,-72
392213547,-2844,-168,15924,-78,32,-82
392216953,-2848,-244,15932,-126,177,-53
392220522,-2772,-160,16044,-105,42,-64
392223957,-2808,-184,16152,-93,179,-60
392227427,-2808,-208,16004,-80,54,-94
392230810,-2872,-156,16028,-72,135,-44
392234280,-2840,-160,15880,-108,157,-75
392237837,-2760,-204,15844,-75,81,-43
392241245,-2804,-176,16204,-87,180,-41
392244690,-2820,-176,15820,-91,40,-74
392248073,-2776,-240,16120,-94,184,-71
392251543,-2800,-120,16000,-119,101,-59
392255100,-2808,-244,15912,-78,149,-52
392258570,-2852,-136,15944,-111,129,-69
392262127,-2780,-140,16020,-94,36,-40
392265513,-2908,-188,15960,-106,184,-87
392269115,-2852,-224,16060,-110,63,-52
392272537,-2796,-216,16020,-60,146,-58
392276007,-2792,-220,16036,-110,63,-75
392279477,-2808,-224,16076,-47,107,-41
392282947,-2804,-296,15904,-119,114,-82
392286503,-2800,-196,16024,-103,43,-73
392289974,-2728,-188,16032,-40,168,-60
392293468,-2784,-148,15900,-77,68,-74
392296827,-2924,-120,16008,-82,174,-61
392300297,-2780,-172,16064,-96,67,-69
392303680,-2692,-284,15804,-62,150,-43
392307150,-2768,-176,15980,-119,157,-80
392310707,-2844,-220,15964,-69,90,-68
392314090,-2840,-188,16116,-75,169,-65
392317583,-2792,-200,16012,-85,37,-65
392320978,-2912,-264,16080,-63,140,-48
392324413,-2776,-252,16044,-117,48,-54
392327883,-2776,-188,15996,-85,84,-68
392331267,-2732,-244,15920,-115,100,-76
392334823,-2764,-228,16012,-107,72,-75
392338293,-2868,-260,16036,-77,184,-56
392341788,-2892,-228,15936,-102,81,-100
392345320,-2876,-260,16000,-68,148,-52
392348790,-2800,-172,16096,-123,116,-87
392352347,-2824,-212,15940,-83,81,-45
392355730,-2768,-244,15996,-99,165,-46
392359200,-2776,-156,16064,-70,55,-66
392362583,-2680,-196,16064,-88,177,-87
392366102,-2824,-172,16080,-94,33,-44
392369437,-2828,-244,15912,-65,193,-83
392372906,-2884,-256,16048,-118,48,-68
392376376,-2772,-212,15884,-39,148,-58
392379847,-2852,-156,16008,-113,114,-81
392383403,-2776,-296,16020,-61,99,-61
392386787,-2884,-200,16008,-100,166,-59
392390343,-2748,-232,16140,-77,79,-66
392393751,-2832,-132,15912,-77,154,-51
392397197,-2812,-220,15896,-79,46,-48
392400580,-2820,-268,15904,-47,132,-67
392404050,-2660,-148,15960,-113,81,-69
392407520,-2792,-228,16016,-94,69,-79
392410903,-2688,-80,16124,-102,178,-74
392414373,-2824,-244,16152,-81,54,-52
392417780,-2872,-132,15988,-74,199,-59
392421261,-2896,-148,15944,-90,56,-91
392424610,-2796,-188,15832,-44,96,-67
392427993,-2784,-316,16044,-114,105,-50
392431549,-2776,-172,16052,-64,52,-81
392434933,-2832,-216,16004,-111,148,-58
392438489,-2836,-280,16036,-91,46,-70
392441897,-2892,-256,16076,-88,182,-74
392445343,-2748,-168,15956,-87,77,-85
392448726,-2728,-192,15968,-37,144,-8
392452109,-2784,-236,15972,-81,44,-70
392455492,-2868,-156,15932,-58,90,-68
392458876,-2744,-196,15928,-106,106,-94
392462433,-2776,-256,15960,-97,75,-34
392465819,-2912,-256,16048,-120,165,-93
392469421,-2848,-268,16044,-76,44,-62
392472756,-2748,-220,15880,-59,191,-56
392476226,-2768,-144,15984,-96,48,-69
392479609,-2848,-228,16016,-65,95,-42
392482992,-2812,-236,15872,-93,98,-78
392486375,-2836,-156,15980,-79,65,-68
392489759,-2860,-188,15932,-106,134,-54
392493340,-2884,-188,15980,-91,45,-66
392496699,-2700,-296,15976,-87,203,-52
392500169,-2856,-88,15924,-90,35,-56
392503465,-2820,-172,15960,-62,161,-68
392506935,-2824,-308,15940,-81,67,-89
392510319,-2824,-140,15968,-51,119,-43
392513788,-2768,-268,15916,-92,85,-77
392517195,-2912,-224,16016,-94,75,-73
392520555,-2868,-168,16060,-131,153,-56
392524147,-2836,-216,15868,-106,25,-61
392527582,-2784,-212,15944,-61,172,-44
392531052,-2820,-240,15956,-103,67,-71
392534522,-2828,-232,15868,-77,167,-75
392537992,-2880,-276,16100,-106,69,-69
392541486,-2764,-248,15844,-61,104,-60
392544932,-2728,-212,15872,-106,101,-49
392548488,-2804,-260,16048,-89,53,-73
392551872,-2732,-176,15904,-112,165,-54
392555429,-2772,-260,15968,-108,53,-59
392558899,-2676,-136,15812,-54,172,-51
392562368,-2760,-236,15900,-118,83,-69
392565842,-2860,-256,16088,-60,146,-54
392569369,-2804,-216,15924,-95,144,-84
392572778,-2788,-240,16104,-80,80,-64
392576162,-2864,-232,15992,-82,167,-53
392579632,-2904,-224,15932,-116,26,-52
392583102,-2836,-168,16024,-79,148,-58
392586572,-2752,-260,15900,-82,58,-50
392589955,-2964,-276,16012,-51,118,-35
392593450,-2888,-304,15944,-109,92,-86
392596895,-2736,-148,15944,-65,75,-50
392600278,-2796,-108,16016,-118,164,-73
392603835,-2848,-284,16004,-93,46,-75
392607218,-2848,-200,15892,-50,161,-57
392610688,-2780,-228,15968,-99,62,-78
392614071,-2768,-208,16044,-42,118,-48
392617565,-2860,-148,16024,-117,89,-63
392621012,-2792,-128,16036,-67,50,-54
392624430,-2840,-232,15888,-114,157,-54
392627952,-2772,-248,15984,-87,41,-56
392631335,-2880,-212,16004,-93,197,-57
392634805,-2816,-260,15972,-111,67,-73
392638275,-2792,-272,16068,-74,133,-65
392641769,-2832,-144,15764,-134,139,-82
392645301,-2820,-232,15940,-68,68,-30
392648685,-3000,-200,15968,-81,147,-45
392652155,-2848,-180,16152,-87,68,-50
392655538,-2796,-228,15892,-73,134,-74
392659008,-2792,-180,15964,-93,62,-65
392662391,-2768,-160,15812,-63,145,-21
392665865,-2840,-324,16016,-110,142,-92
392669466,-2856,-228,15916,-72,86,-69
392672801,-2848,-88,15940,-85,174,-21
392676185,-2836,-204,16060,-77,55,-83
392679568,-2760,-228,16012,-105,163,-43
392683124,-2832,-268,15968,-114,38,-44
392686594,-2660,-284,15988,-67,80,-49
392689978,-2872,-240,15948,-126,79,-75
392693472,-2796,-168,16012,-62,56,-56
392696831,-2728,-232,15968,-105,142,-68
392700388,-2764,-176,16000,-87,68,-74
392703771,-2652,-312,15936,-94,169,-76
392707241,-2884,-232,15916,-104,57,-72
392710711,-2828,-228,15992,-68,149,-49
392714181,-2776,-240,15864,-113,51,-55
392717674,-2648,-220,15868,-57,106,-65
392721121,-2736,-180,15836,-133,111,-84
392724713,-2888,-260,15992,-99,57,-66
392728061,-2788,-200,15892,-122,157,-73
392731618,-2804,-220,16016,-101,40,-71
392735088,-2752,-188,15944,-45,172,-48
392738558,-2820,-304,16044,-114,88,-68
392742052,-2736,-164,16036,-63,101,-39
392745498,-2844,-260,15940,-113,157,-78
392749055,-2828,-248,15884,-56,54,-72
392752438,-2936,-272,15908,-62,176,-26
392755908,-2776,-172,15960,-111,42,-79
392759378,-2820,-300,16028,-63,114,-32
392762848,-2876,-204,15980,-104,92,-67
392766366,-2732,-312,15992,-100,60,-45
392769788,-2704,-196,15876,-97,170,-74
392773258,-2760,-208,15948,-88,54,-58
392776641,-2740,-232,15844,-91,158,-70
392780111,-2784,-216,16012,-92,53,-76
392783494,-2800,-220,15916,-83,135,-53
392786964,-2848,-148,15992,-81,47,-67
392790347,-2880,-232,15984,-88,103,-58
392793842,-2776,-196,16020,-108,131,-73
392797374,-2696,-228,15912,-114,42,-59
392800844,-2872,-188,16076,-82,187,-68
392804314,-2840,-300,15920,-118,51,-77
392807784,-2732,-228,15796,-78,159,-64
392811254,-2724,-244,16104,-117,122,-85
392814811,-2716,-220,15972,-51,111,-35
392818304,-2816,-212,16092,-106,170,-80
392821838,-2796,-92,16020,-75,75,-68
392825169,-2892,-248,15964,-77,191,-66
392828604,-2856,-184,15804,-70,51,-68
392831988,-2772,-296,15848,-63,155,-56
392835457,-2768,-196,16000,-116,58,-52
392838928,-2840,-252,16120,-74,75,-73
392842335,-2756,-220,16048,-116,138,-55
392845868,-2848,-248,15980,-77,38,-47
392849251,-2816,-240,16036,-103,173,-58
392852808,-2760,-252,15996,-99,65,-67
392856191,-2864,-236,15920,-74,153,-76
392859661,-2888,-228,15984,-92,28,-57
392863044,-2712,-228,15924,-61,126,-61
392866562,-2832,-172,15924,-112,53,-74
392869984,-2764,-248,16116,-63,68,-48
392873367,-2980,-152,15924,-108,118,-65
392876924,-2812,-152,15976,-113,49,-68
392880394,-2804,-144,15868,-117,182,-64
392883951,-2788,-256,16056,-106,53,-102
392887508,-2804,-144,15972,-57,169,-39
392891002,-2792,-240,15960,-110,69,-63
392894448,-2876,-228,15940,-67,140,-53
392897917,-2836,-232,15904,-122,186,-79
392901474,-2764,-324,15996,-110,68,-45
392904944,-2880,-264,16028,-59,166,-63
392908414,-2772,-100,15988,-110,50,-65
392911884,-2776,-200,15924,-75,144,-62
392915354,-2828,-164,16020,-107,59,-50
392918847,-2716,-128,15944,-66,85,-72
392922208,-2892,-164,16000,-143,109,-79
392925799,-2840,-196,16052,-91,53,-76
392929147,-2776,-176,16048,-83,158,-64
392932617,-2828,-264,16116,-110,59,-53
392936088,-2828,-148,15972,-61,148,-85
392939558,-2828,-256,16064,-129,138,-50
392943139,-2856,-156,15932,-69,95,-62
392946498,-2788,-148,15824,-98,179,-42
392949967,-2812,-204,15968,-67,74,-75
392953351,-2788,-208,15912,-88,190,-53
392956821,-2868,-212,15940,-106,47,-65
392960291,-2780,-148,15960,-67,147,-48
392963761,-2848,-180,15860,-95,101,-56
392967280,-2836,-260,15924,-88,106,-28
392970701,-2848,-308,15996,-77,172,-94
392974171,-2736,-220,16096,-90,42,-49
392977554,-2860,-244,15928,-65,191,-51
392981024,-2844,-204,16044,-79,54,-60
392984407,-2776,-176,15928,-53,126,-60
392987877,-2928,-176,15960,-127,86,-60
392991372,-2700,-344,15904,-58,81,-71
392994730,-2768,-244,16148,-121,136,-90
392998287,-2772,-196,15956,-95,62,-42
393001671,-2772,-196,15828,-105,179,-85
393005227,-2716,-240,15924,-122,41,-35
393008697,-2940,-128,15900,-47,138,-86
393012167,-2852,-136,15924,-126,102,-74
393015727,-2832,-196,15956,-71,120,-39
393019217,-2900,-176,15932,-108,172,-77
393022751,-2844,-172,15988,-80,46,-55
393026169,-2804,-192,15868,-74,171,-61
393029604,-2860,-160,15976,-119,49,-73
393033074,-2784,-172,15996,-82,122,-29
393036544,-2812,-312,15896,-108,87,-79
393040014,-2852,-208,15956,-49,90,-62
393043422,-2804,-136,15920,-133,154,-62
393046954,-2912,-256,15924,-80,99,-56
393050337,-2812,-184,15920,-123,184,-27
393053894,-2796,-216,16132,-82,50,-64
393057277,-2760,-156,16108,-52,156,-67
393060747,-2684,-244,15872,-108,68,-40
393064217,-2732,-228,16060,-59,82,-43
393067703,-2784,-240,15996,-114,128,-75
393071157,-2800,-220,16004,-83,46,-83
393074541,-2664,-184,15936,-103,161,-76
393078097,-2720,-176,15884,-122,42,-49
393081567,-2764,-308,15928,-54,174,-69
393085037,-2808,-172,16024,-129,69,-70
393088507,-2828,-208,16036,-67,120,-61
393092002,-2860,-200,15920,-105,163,-70
393095534,-2704,-164,15824,-71,74,-54
393098917,-2780,-184,15928,-87,187,-69
393102387,-2836,-176,16036,-91,56,-32
393105771,-2688,-168,16072,-52,173,-50
393109241,-2888,-196,15932,-123,32,-42
393112711,-2804,-212,15816,-50,171,-58
393116204,-2884,-176,16028,-119,96,-72
393119650,-2736,-168,15972,-63,111,-47
393123120,-2808,-228,15840,-119,133,-68
393126716,-2712,-260,15916,-69,51,-62
393130061,-2668,-132,15964,-94,170,-67
393133530,-2784,-220,16008,-95,57,-46
393136914,-2784,-216,16136,-58,183,-53
393140384,-2792,-196,15856,-95,64,-66
393143792,-2760,-276,15884,-76,101,-73
393147237,-2784,-160,15948,-126,136,-69
393150794,-2840,-244,15936,-68,36,-83
393154177,-2848,-220,16088,-113,156,-60
393157734,-2824,-272,15956,-97,65,-81
393161117,-2776,-188,15916,-84,176,-21
393164587,-2844,-220,15980,-111,103,-51
393168192,-2824,-204,16016,-41,110,-60
393171614,-2832,-220,16032,-115,184,-50
393175171,-2836,-160,15964,-90,85,-45
393178554,-2856,-192,15984,-78,170,-60
393182024,-2908,-304,15832,-87,50,-68
393185407,-2744,-192,15860,-65,147,-46
393188877,-2708,-128,15988,-127,87,-60
393192372,-2848,-208,16056,-58,107,-69
393195817,-2808,-256,16036,-106,172,-70
393199374,-2772,-180,15952,-94,75,-32
393202757,-2828,-260,16024,-76,181,-84
393206227,-2804,-232,15872,-108,62,-66
393209697,-2844,-284,16212,-63,147,-44
393213167,-2864,-196,15860,-98,46,-61
393216574,-2864,-228,15980,-93,70,-53
393219933,-2748,-116,15952,-95,142,-107
393223490,-2652,-212,15976,-83,66,-65
393226909,-2748,-256,16092,-105,161,-75
393230430,-2832,-292,16012,-90,70,-73
393233813,-2744,-216,16024,-63,144,-65
393237284,-2772,-160,15896,-124,119,-62
393240844,-2824,-220,15952,-51,122,-64
393244335,-2740,-232,16036,-114,131,-89
393247867,-2904,-268,15872,-108,85,-63
393251337,-2800,-160,15996,-59,165,-57
393254807,-2748,-120,15864,-128,62,-70
393258277,-2808,-220,15984,-57,121,-61
393261747,-2828,-204,15844,-124,90,-59
393265217,-2936,-304,16000,-67,59,-77
393268649,-2812,-244,15960,-120,131,-89
393272157,-2672,-220,15908,-99,55,-59
393275540,-2928,-88,15940,-97,188,-55
393278923,-2788,-256,15908,-70,44,-68
393282307,-2820,-256,15940,-51,167,-58
393285777,-2840,-92,16060,-101,57,-47
393289160,-2956,-96,16036,-70,123,-67
393292568,-2764,-132,15964,-115,86,-74
393296013,-2824,-224,15924,-83,100,-46
393299483,-2716,-200,15944,-99,157,-66
393302953,-2808,-244,15972,-68,66,-72
393306336,-2856,-264,16004,-62,156,-13
393309806,-2760,-196,15988,-87,65,-93
393313190,-2844,-144,16012,-59,142,-32
393316683,-2712,-268,15788,-117,92,-80
393320130,-2804,-204,15852,-50,84,-58
393323513,-2992,-132,15912,-132,139,-57
393327105,-2820,-244,15992,-79,40,-76
393330453,-2892,-144,15948,-104,181,-85
393334010,-2776,-236,15948,-91,56,-85
393337393,-2932,-328,15876,-73,167,-60
393340866,-2824,-176,16028,-84,60,-60
393344271,-2804,-208,15880,-74,140,-33
393347716,-2868,-216,16028,-133,68,-71
393351186,-2808,-228,15940,-75,82,-64
393354570,-2792,-220,15964,-105,158,-45
393358126,-2852,-188,16016,-82,37,-65
393361509,-2796,-240,16088,-87,177,-43
393364980,-2764,-260,16056,-103,58,-84
393368498,-2864,-224,16052,-58,126,-64
393371919,-2804,-188,16052,-119,157,-50
393375476,-2852,-204,15856,-83,77,-88
393378859,-2860,-128,16056,-92,192,-42
393382330,-2764,-148,16000,-83,80,-78
393385713,-2888,-160,15964,-44,140,-67
393389183,-2876,-244,15964,-85,43,-67
393392591,-2796,-268,16000,-75,180,-45
393396036,-2836,-244,16052,-111,95,-57
393399506,-2792,-224,15944,-76,111,-43
393402976,-2824,-200,15920,-98,155,-76
393406446,-2776,-240,15936,-68,71,-53
393409829,-2868,-216,15784,-77,151,-26
393413299,-2808,-312,16116,-96,85,-84
393416706,-2784,-276,16092,-57,125,-44
393420152,-2756,-288,15884,-97,86,-74
393423536,-2908,-108,15952,-54,144,-48
393427009,-2788,-208,16120,-127,108,-68
393430597,-2776,-276,15864,-100,47,-63
393434032,-2748,-248,15864,-87,181,-64
393437503,-2804,-236,16032,-82,61,-77
393440889,-2824,-264,16024,-66,166,-43
393444380,-2756,-228,15980,-105,58,-64
393447826,-2908,-232,15992,-46,108,-72
393451296,-2804,-240,15964,-113,115,-54
393454853,-2824,-160,16008,-87,79,-63
393458236,-2900,-284,15992,-123,146,-56
393461792,-2728,-308,16108,-93,61,-69
393465176,-2872,-220,16084,-59,176,-63
393468694,-2700,-220,15860,-114,88,-50
393472116,-2736,-116,16168,-74,97,-74
393475499,-2888,-200,16028,-102,154,-68
393479056,-2852,-148,15872,-95,42,-68
393482439,-2812,-176,15984,-66,168,-43
393485909,-2872,-232,16052,-101,73,-69
393489379,-2808,-216,16132,-50,117,-63
393492873,-2728,-344,15892,-124,105,-88
393496406,-2820,-172,16136,-72,49,-48
393499789,-2792,-288,16032,-117,151,-79
393503346,-2812,-172,15944,-97,48,-64
393506729,-2844,-248,16004,-83,157,-75
393510199,-2784,-188,16068,-80,29,-59
393513582,-2856,-92,16012,-63,118,-59
393516989,-2764,-256,16052,-122,78,-82
393520435,-2796,-232,15972,-86,78,-77
393523819,-2816,-228,15908,-113,142,-56
393527376,-2928,-272,15964,-113,50,-70
393530881,-2856,-192,15920,-95,184,-35
393534316,-2704,-248,16008,-94,67,-55
393537699,-2864,-104,16040,-59,143,-85
393541193,-2764,-268,16024,-115,137,-77
393544725,-2732,-208,15940,-71,90,-46
393548109,-2864,-232,16008,-82,197,-75
393551579,-2848,-248,16032,-90,72,-78
393554962,-2796,-136,16060,-59,181,-73
393558432,-2828,-148,16032,-130,86,-85
393561902,-2704,-228,15896,-51,152,-58
393565372,-2836,-268,15928,-88,151,-70
393568903,-2844,-188,15800,-96,61,-91
393572225,-2940,-172,15952,-68,172,-41
393575695,-2864,-244,15908,-99,42,-63
393579079,-2796,-212,16116,-52,143,-54
393582549,-2796,-172,15960,-90,46,-57
393585932,-2816,-196,15816,-74,70,-56
393589315,-2824,-220,15984,-114,132,-80
393592896,-2808,-240,16044,-107,58,-81
393596342,-2748,-220,15924,-91,187,-65
393599812,-2796,-224,15916,-79,64,-55
393603195,-2644,-272,15912,-53,160,-59
393606665,-2772,-144,16000,-109,66,-39
393610135,-2716,-196,16052,-68,129,-66
393613605,-2768,-256,15880,-108,102,-69
393617185,-2864,-280,15888,-70,71,-58
393620545,-2780,-176,16016,-105,142,-97
393624102,-2812,-232,15932,-88,41,-79
393627485,-2796,-244,15988,-81,166,-53
393630990,-2776,-232,16112,-102,60,-76
393634425,-2716,-272,15952,-39,127,-77
393637895,-2800,-260,15952,-124,125,-87
393641476,-2816,-196,15888,-70,93,-45
393644835,-2760,-232,15980,-72,167,-56
393648305,-2828,-204,15960,-98,73,-73
393651688,-2860,-220,15872,-41,143,-48
393655158,-2800,-180,15984,-116,62,-59
393658628,-2828,-216,15952,-75,139,-20
393662098,-2788,-244,16076,-114,94,-68
393665572,-2764,-280,15984,-72,124,-33
393669087,-2872,-192,15836,-104,153,-63
393672595,-2896,-240,15888,-92,47,-81
393675978,-2768,-244,16072,-62,180,-56
393679448,-2840,-252,16040,-101,38,-47
393682918,-2764,-180,15988,-59,125,-85
393686388,-2796,-120,16088,-110,68,-69
393689858,-2920,-284,15936,-58,71,-50
393693271,-2812,-244,16056,-125,163,-91
393696798,-2924,-248,15992,-88,13,-59
393700181,-2804,-208,15948,-64,166,-60
393703651,-2864,-260,15912,-138,84,-90
393707121,-2660,-148,16132,-57,154,-54
393710591,-2944,-180,16060,-113,125,-69
393714148,-2732,-128,16096,-79,90,-66
393717555,-2816,-160,15948,-113,165,-64
393721088,-2828,-216,15940,-70,70,-61
393724471,-2812,-220,16012,-60,202,-38
393727941,-2808,-268,15964,-122,69,-60
393731446,-2892,-232,15920,-45,121,-34
393734882,-2756,-228,15836,-92,64,-84
393738265,-2764,-196,15868,-68,126,-43
393741759,-2812,-232,15952,-123,118,-57
393745292,-2736,-208,15884,-43,102,-53
393748761,-2852,-188,15884,-119,165,-61
393752318,-2748,-184,16060,-94,46,-59
393755702,-2812,-252,15828,-61,192,-50
393759172,-2804,-184,16044,-89,79,-60
393762555,-2816,-244,16028,-82,130,-46
393766073,-2860,-272,15848,-117,73,-90
393769495,-2724,-316,16140,-68,85,-44
393772878,-2784,-244,16100,-134,144,-73
393776435,-2800,-196,15852,-81,44,-63
393779818,-2856,-208,15924,-116,188,-47
393783375,-2820,-136,15960,-101,52,-46
393786845,-2796,-200,15924,-67,181,-51
393790315,-2920,-236,15936,-102,83,-51
393793809,-2748,-180,15972,-65,120,-42
393797255,-2820,-216,15836,-107,153,-75
393800812,-2796,-256,15936,-79,52,-71
393804195,-2804,-180,15980,-67,159,-74
393807665,-2856,-280,16116,-99,47,-53
393811048,-2768,-224,15852,-74,148,-66
393814518,-2876,-156,15900,-95,63,-75
393817924,-2820,-88,15884,-31,155,-35
393821284,-2712,-164,16120,-114,124,-35
393824841,-2788,-184,16056,-73,89,-60
393828225,-2808,-172,15956,-85,188,-76
393831730,-2852,-244,16024,-78,66,-40
393835078,-2868,-180,16012,-64,185,-59
393838548,-2944,-160,15896,-87,52,-72
393841956,-2788,-148,16188,-57,108,-64
393845401,-2792,-116,16096,-103,114,-63
393848958,-2756,-180,15896,-82,77,-38
393852341,-2776,-232,16044,-104,138,-38
393855898,-2848,-204,16092,-86,71,-47
393859281,-2760,-216,15920,-110,194,-64
393862838,-2836,-92,15996,-73,59,-42
393866183,-2808,-172,16068,-88,169,-59
393869604,-2876,-188,15960,-107,49,-67
393873074,-2888,-264,15976,-74,106,-63
393876544,-2828,-188,15856,-144,104,-84
393880101,-2760,-312,16036,-84,73,-56
393883484,-2804,-308,16004,-116,155,-67
393887041,-2792,-188,16052,-82,31,-76
393890428,-2800,-104,15876,-68,184,-36
393893919,-2768,-264,15780,-128,105,-71
393897451,-2836,-244,15960,-63,136,-72
393900921,-2836,-224,15968,-107,182,-81
393904478,-2728,-216,15960,-79,95,-57
393907861,-2812,-108,16068,-76,168,-64
393911331,-2852,-140,16008,-92,47,-80
393914714,-2852,-260,15900,-72,129,-57
393918207,-2848,-188,15960,-103,67,-87
393921654,-2844,-156,15884,-82,99,-66
393925038,-2832,-96,15848,-116,128,-73
393928507,-2776,-292,16000,-83,90,-72
393931926,-2816,-268,16040,-107,165,-67
393935448,-2788,-148,15984,-96,52,-64
393938831,-2800,-220,15940,-73,156,-49
393942325,-2796,-228,16000,-85,75,-63
393945684,-2912,-256,15932,-70,100,-50
393949154,-2812,-268,15796,-100,106,-77
393952711,-2760,-276,15984,-92,65,-70
393956094,-2836,-260,15940,-101,158,-53
393959651,-2780,-188,16012,-102,45,-61
393963121,-2868,-96,15872,-61,181,-54
393966553,-2812,-220,16040,-112,57,-74
393969974,-2872,-196,16020,-38,129,-60
393973444,-2892,-244,15892,-124,118,-87
393977001,-2816,-172,15948,-81,82,-73
393980384,-2748,-116,15952,-103,154,-55
393983941,-2772,-140,15916,-78,48,-69
393987324,-2920,-200,16048,-90,172,-57
393990798,-2892,-120,15964,-109,69,-104
393994375,-2780,-188,15972,-77,71,-49
393997734,-2784,-180,15932,-124,126,-49
394001291,-2872,-252,15952,-81,95,-52
394004674,-2796,-188,15864,-109,191,-45
394008231,-2792,-200,15956,-85,61,-58
394011614,-2672,-108,15964,-62,151,-60
394015084,-2760,-156,16056,-127,51,-60
394018577,-2760,-220,15808,-60,103,-49
394022024,-2792,-180,16072,-125,95,-85
394025494,-2932,-216,15864,-109,73,-56
394028964,-2664,-212,16024,-119,173,-65
394032556,-2752,-220,15872,-88,53,-61
394035904,-2760,-76,16008,-79,216,-45
394039287,-2908,-236,16024,-118,50,-92
394042782,-2760,-224,16064,-68,148,-24
394046227,-2808,-244,16004,-109,132,-64
394049784,-2812,-228,15940,-89,55,-58
394053167,-2968,-188,15824,-102,186,-45
394056724,-2864,-160,15956,-94,32,-65
394060107,-2772,-192,16092,-58,156,-61
394063577,-2824,-224,15928,-76,70,-55
394067063,-2844,-204,15976,-66,127,-70
394070430,-2800,-232,15852,-107,55,-79
394073900,-2756,-164,16016,-46,134,-65
394077370,-2832,-176,16076,-99,169,-56
394080840,-2904,-272,16088,-70,73,-71
394084224,-2916,-188,15968,-79,155,-63
394087694,-2872,-224,16052,-75,33,-53
394091102,-2792,-216,16064,-61,134,-58
394094547,-2724,-292,16116,-118,61,-82
394098017,-2728,-216,16096,-56,132,-45
394101487,-2872,-184,15916,-120,92,-50
394104957,-2900,-256,15992,-92,72,-36
394108340,-2732,-268,15980,-115,141,-79
394111897,-2868,-248,16000,-106,75,-63
394115370,-2860,-188,15992,-55,168,-56
394118860,-2804,-164,16068,-98,40,-64
394122220,-2836,-172,15924,-71,139,-37
394125690,-2836,-224,15996,-93,91,-81
394129073,-2864,-264,15940,-74,69,-49
394132460,-2784,-336,16064,-127,162,-78
394136052,-2892,-224,15924,-77,51,-79
394139397,-2856,-292,16020,-91,157,-48
394142891,-2704,-220,15980,-116,72,-77
394146337,-2844,-220,15892,-45,151,-27
394149807,-2924,-176,15924,-118,118,-62
394153363,-2804,-220,15996,-65,85,-73
394156747,-2760,-212,15848,-81,189,-66
394160217,-2776,-236,15996,-83,60,-64
394163600,-2816,-284,16040,-102,192,-50
394167205,-2736,-176,15992,-102,51,-72
394170627,-2800,-212,15916,-64,197,-59
394174097,-2744,-168,16092,-76,73,-82
394177480,-2760,-200,15912,-46,127,-67
394180950,-2700,-212,16132,-113,125,-61
394184507,-2900,-176,16000,-69,99,-49
394187890,-2856,-204,16168,-100,186,-89
394191471,-2816,-284,15916,-85,57,-56
394194830,-2884,-144,15924,-52,173,-68
394198300,-2780,-240,16080,-68,27,-53
394201683,-2844,-212,16032,-55,99,-36
394205067,-2796,-172,16064,-122,80,-75
394208537,-2904,-192,16092,-105,59,-80
394212006,-2788,-196,16052,-95,139,-48
394215480,-2780,-232,15980,-74,70,-60
394218883,-2832,-232,15892,-53,169,-53
394222330,-2816,-236,16080,-105,45,-59
394225800,-2732,-368,15828,-59,123,-40
394229270,-2888,-140,16044,-103,84,-71
394232740,-2848,-188,15916,-81,89,-47
394236158,-2816,-200,15984,-128,128,-36
394239680,-2812,-256,15952,-88,52,-61
394243087,-2688,-364,16000,-107,166,-62
394246620,-2752,-236,16044,-111,78,-44
394250090,-2868,-232,15960,-63,154,-67
394253560,-2936,-228,15960,-122,124,-55
394257116,-2880,-108,15992,-65,81,-71
394260500,-2824,-324,16052,-109,174,-67
394264056,-2864,-200,15916,-86,53,-69
394267488,-2776,-192,16024,-95,174,-109
394270996,-2868,-200,15888,-107,72,-42
394274466,-2848,-228,15888,-50,91,-43
394277850,-2892,-220,15976,-111,101,-68
394281406,-2872,-160,15864,-72,53,-44
394284790,-2736,-180,15976,-103,172,-62
394288346,-2824,-280,16024,-98,33,-72
394291754,-2700,-108,16020,-74,172,-48
394295200,-2900,-264,15836,-119,100,-82
394298757,-2696,-244,16064,-73,104,-34
394302227,-2840,-224,16004,-119,160,-65
394305783,-2856,-200,16012,-71,81,-50
394309166,-2816,-236,15980,-79,191,-49
394312636,-2716,-244,16008,-81,54,-71
394316043,-2748,-104,15984,-86,174,-82
394319490,-2832,-140,15860,-84,103,-100
394323046,-2824,-280,16008,-59,106,-50
394326517,-2740,-260,15972,-117,151,-66
394330073,-2812,-156,15912,-87,65,-86
394333457,-2780,-160,16024,-89,172,-67
394336961,-2808,-248,15936,-89,63,-66
394340310,-2880,-268,15920,-54,140,-58
394343804,-2824,-88,15892,-116,73,-52
394347163,-2792,-220,15924,-71,82,-45
394350546,-2900,-240,15904,-116,144,-75
394354103,-2760,-288,15980,-89,34,-49
394357486,-2812,-192,15920,-84,190,-45
394360956,-2796,-252,16000,-96,70,-74
394364339,-2764,-208,16060,-54,155,-35
394367858,-2832,-232,16008,-123,36,-52
394371280,-2748,-232,16080,-79,128,-50
394374749,-2792,-224,16136,-110,58,-89
394378220,-2800,-256,15884,-67,51,-44
394381603,-2892,-248,16048,-121,150,-83
394385159,-2812,-336,16120,-86,27,-75
394388543,-2772,-184,15968,-75,186,-54
394392037,-2828,-180,15768,-99,59,-64
394395396,-2824,-124,15916,-72,140,-62
394398866,-2744,-176,15984,-123,110,-80
394402423,-2784,-244,15992,-69,108,-51
394405893,-2880,-216,15976,-109,164,-81
394409449,-2840,-168,16020,-94,69,-47
394412833,-2804,-260,15952,-69,175,-37
394416326,-2852,-256,16036,-88,36,-72
394419686,-2792,-228,15904,-54,182,-43
394423156,-2772,-224,15840,-135,79,-56
394426626,-2780,-152,16020,-58,149,-26
394430096,-2840,-184,16052,-133,152,-70
394433653,-2848,-164,15944,-62,86,-79
394437071,-2792,-196,16000,-64,186,-67
394440510,-2772,-248,15980,-98,52,-64
394443914,-2872,-328,15832,-61,162,-65
394447359,-2876,-216,15992,-93,71,-82
394450742,-2880,-252,15932,-83,86,-49
394454126,-2792,-264,15996,-110,133,-80
394457682,-2796,-148,16032,-77,42,-53
394461066,-2848,-240,15896,-87,178,-78
394464536,-2740,-236,15928,-104,58,-60
394468054,-2808,-176,15884,-56,166,-56
394471476,-2716,-344,16112,-65,51,-49
394474859,-2912,-312,16164,-60,90,-51
394478242,-2916,-248,15884,-141,135,-50
394481799,-2820,-216,16000,-88,52,-63
394485182,-2788,-248,15892,-97,165,-70
394488652,-2816,-260,16040,-125,50,-74
394492147,-2772,-192,15904,-55,135,-41
394495592,-2832,-252,15912,-128,120,-45
394499149,-2764,-216,15960,-66,79,-53
394502532,-2804,-228,15948,-95,172,-53
394506002,-2804,-212,16024,-82,72,-48
394509385,-2820,-228,15904,-80,162,-61
394512855,-2768,-212,15928,-83,49,-87
394516262,-2760,-244,15872,-97,190,-43
394519709,-2856,-256,15928,-91,71,-79
394523092,-2768,-152,15932,-66,154,-51
394526562,-2684,-172,15892,-112,141,-63
394530119,-2832,-216,15940,-90,86,-40
394533502,-2864,-208,15964,-82,163,-48
394536976,-2812,-160,16004,-108,62,-77
394540480,-2796,-232,15924,-60,120,-57
394543937,-2760,-192,16036,-136,82,-72
394547382,-2844,-260,16120,-81,75,-56
394550765,-2724,-156,15900,-115,145,-64
394554322,-2752,-332,16036,-85,44,-57
394557705,-2712,-244,16004,-90,202,-49
394561175,-2792,-288,15888,-100,51,-41
394564645,-2720,-200,16000,-64,148,-59
394568176,-2812,-204,15880,-116,119,-79
394571672,-2788,-164,16024,-72,97,-42
394575055,-2884,-272,15952,-113,97,-88
394578525,-2724,-148,15948,-103,59,-60
394581995,-2760,-192,15940,-101,139,-45
394585552,-2904,-140,16092,-77,68,-70
394588935,-2804,-156,15928,-75,184,-42
394592430,-2664,-296,15932,-116,56,-54
394595875,-2848,-180,15828,-46,156,-70
394599345,-2888,-140,15848,-109,114,-66
394602902,-2832,-304,15984,-49,118,-69
394606372,-2748,-204,15864,-121,146,-37
394609929,-2812,-204,16144,-66,83,-50
394613312,-2768,-232,16028,-71,178,-60
394616805,-2680,-240,15872,-86,72,-64
394620165,-2776,-132,15904,-76,148,-62
394623635,-2824,-216,15884,-113,77,-43
394627105,-2776,-224,16116,-57,102,-36
394630575,-2872,-160,16068,-126,84,-68
394634045,-2904,-240,15960,-98,50,-70
394637428,-2764,-240,16184,-112,144,-60
394641028,-2796,-228,15972,-104,44,-87
394644455,-2764,-276,15944,-85,180,-66
394647925,-2908,-212,16036,-117,51,-75
394651395,-2756,-252,16012,-52,145,-81
394654865,-2848,-140,15992,-118,119,-49
394658422,-2836,-96,15932,-79,70,-49
394661718,-2724,-212,15916,-109,156,-87
394665275,-2832,-184,16012,-85,48,-99
394668707,-2824,-208,15960,-92,191,-23
394672128,-2832,-264,15968,-111,73,-71
394675599,-2812,-228,15984,-54,142,-33
394679069,-2872,-300,16032,-105,131,-80
394682625,-2784,-228,15976,-71,81,-63
394686008,-2880,-176,15792,-119,172,-42
394689565,-2788,-232,16000,-81,80,-66
394692973,-2904,-220,16008,-50,156,-61
394696419,-2804,-140,15876,-103,34,-85
394699888,-2808,-196,15900,-64,98,-43
394703272,-2804,-188,16088,-129,100,-84
394706829,-2852,-292,15972,-105,62,-73
394710298,-2824,-208,15948,-94,191,-54
394713769,-2856,-240,16008,-96,75,-94
394717176,-2728,-180,15896,-66,138,-61
394720622,-2856,-188,15964,-116,159,-61
394724178,-2852,-168,15880,-65,65,-47
394727562,-2740,-160,15964,-97,172,-57
394731032,-2712,-208,16036,-110,63,-67
394734502,-2728,-196,15992,-77,187,-66
394737972,-2896,-184,15980,-104,54,-83
394741483,-2700,-212,16048,-72,102,-46
394744912,-2872,-208,16012,-115,114,-69
394748469,-2804,-324,15912,-87,62,-86
394751852,-2780,-192,16036,-120,166,-53
394755409,-2856,-240,15868,-79,67,-64
394758792,-2812,-232,16056,-76,170,-53
394762262,-2812,-172,15996,-120,66,-72
394765735,-2804,-276,16072,-77,129,-51
394769250,-2804,-204,15960,-113,76,-75
394772672,-2884,-240,15964,-62,72,-60
394776055,-2884,-184,15932,-100,150,-74
394779612,-2752,-216,15968,-80,57,-85
394782995,-2844,-144,16076,-87,165,-96
394786465,-2808,-156,15908,-114,93,-58
394789935,-2744,-296,16012,-76,126,-52
394793430,-2772,-192,15900,-116,149,-47
394796962,-2808,-220,15928,-93,77,-54
394800345,-2748,-176,16064,-99,169,-93
394803815,-2936,-240,15884,-103,59,-59
394807285,-2772,-220,16020,-46,154,-56
394810755,-2704,-216,15952,-111,67,-46
394814225,-2832,-292,16072,-70,103,-42
394817719,-2848,-208,15864,-115,87,-36
394821165,-2736,-244,15976,-63,106,-74
394824635,-2828,-140,16012,-111,169,-102
394828279,-2656,-260,15924,-98,52,-54
394831662,-2912,-232,16144,-61,150,-47
394835132,-2744,-240,15912,-100,64,-51
394838602,-2772,-220,15844,-62,140,-60
394842114,-2816,-152,16028,-116,105,-79
394845628,-2916,-160,16012,-78,75,-78
394849012,-2860,-244,15892,-125,147,-54
394852568,-2888,-236,15988,-123,56,-63
394856039,-2748,-260,15952,-87,170,-61
394859508,-2716,-228,15868,-119,101,-57
394863065,-2748,-184,16028,-107,60,-60
394866584,-2844,-204,15968,-125,135,-39
394870092,-2772,-260,16032,-92,59,-58
394873475,-2708,-212,15804,-92,168,-70
394876945,-2716,-208,15944,-73,52,-86
394880328,-2824,-168,15932,-91,176,-38
394883799,-2764,-104,16020,-106,57,-47
394887269,-2796,-228,15944,-68,100,-68
394890742,-2672,-204,16088,-133,98,-64
394894233,-2804,-296,16024,-92,57,-47
394897592,-2708,-232,16044,-107,177,-83
394901148,-2836,-212,15904,-102,66,-55
394904618,-2824,-260,16044,-81,154,-52
394908089,-2752,-228,15932,-111,140,-68
394911645,-2836,-140,15876,-72,90,-47
394915029,-2716,-332,15992,-102,157,-62
394918610,-2748,-116,15860,-86,55,-65
394921968,-2876,-268,15928,-62,171,-41
394925439,-2752,-168,16120,-98,64,-76
394928822,-2752,-228,16044,-85,132,-77
394932292,-2816,-152,15920,-107,75,-84
394935762,-2672,-216,16056,-82,60,-62
394939145,-2920,-228,16116,-126,134,-82
394942743,-2780,-280,15964,-88,70,-79
394946085,-2776,-216,16036,-98,178,-59
394949555,-2676,-176,15860,-83,61,-56
394952938,-2764,-164,15976,-72,111,-53
394956408,-2884,-272,16104,-124,87,-46
394959878,-2784,-352,16032,-86,92,-66
394963261,-2868,-244,15904,-125,149,-58
394966868,-2748,-196,16080,-74,43,-83
394970202,-2692,-212,16020,-110,171,-72
394973758,-2812,-316,15988,-71,60,-60
394977141,-2784,-216,15916,-72,141,-41
394980611,-2836,-144,15780,-128,91,-69
394984082,-2792,-152,15952,-58,99,-60
394987465,-2836,-176,16080,-122,101,-66
394991046,-2844,-260,15828,-103,67,-39
394994491,-2948,-208,15972,-97,160,-47
394997962,-2940,-212,15908,-90,37,-68
395001345,-2800,-176,16036,-59,149,-31
395004815,-2812,-176,15896,-106,105,-76
395008372,-2756,-196,15968,-70,92,-54
395011755,-2852,-192,15988,-90,178,-74
395015225,-2860,-232,16040,-86,49,-61
395018633,-2844,-204,15984,-84,156,-70
395022078,-2976,-164,15792,-83,65,-51
395025461,-2888,-172,15932,-45,106,-61
395028931,-2772,-164,16012,-119,85,-82
395032401,-2812,-240,16004,-84,58,-62
395035785,-2812,-140,15888,-109,150,-77
395039341,-2800,-128,15976,-105,44,-63
395042853,-2880,-148,15992,-66,180,-44
395046281,-2784,-312,15956,-94,57,-41
395049664,-2828,-228,15948,-45,153,-58
395053134,-2764,-280,16036,-84,64,-38
395056518,-2816,-216,15796,-65,83,-43
395059901,-2692,-220,16132,-121,106,-54
395063458,-2736,-240,16096,-83,54,-63
395066943,-2756,-236,16036,-87,168,-53
395070311,-2772,-252,16048,-109,83,-89
395073781,-2804,-232,15948,-60,117,-63
395077251,-2768,-272,16040,-125,117,-82
395080808,-2832,-184,16108,-59,94,-54
395084191,-2824,-232,15900,-107,182,-56
395087748,-2852,-232,15836,-78,78,-77
395091156,-2860,-176,16084,-59,120,-50
395094601,-2816,-228,15968,-115,81,-68
395098071,-2780,-252,15944,-65,142,-66
395101541,-2832,-156,15876,-113,144,-69
395105098,-2848,-208,15920,-72,70,-84
395108481,-2772,-296,15936,-90,185,-57
395111951,-2820,-152,15968,-75,58,-58
395115338,-2808,-220,15912,-70,160,-61
395118829,-2768,-276,15868,-112,55,-82
395122274,-2888,-296,15924,-57,93,-41
395125657,-2900,-200,15984,-118,129,-51
395129214,-2780,-192,15852,-68,74,-89
395132598,-2732,-172,15940,-117,173,-65
395136154,-2824,-156,16036,-87,54,-48
395139538,-2792,-204,15988,-68,166,-61
395143053,-2812,-216,16136,-129,80,-72
395146477,-2956,-320,16036,-71,121,-43
395149948,-2732,-216,15800,-122,139,-54
395153504,-2856,-248,16032,-62,89,-96
395156887,-2912,-252,16132,-96,169,-83
395160358,-2992,-236,16056,-83,60,-34
395163741,-2884,-176,16072,-102,188,-37
395167346,-2824,-72,16152,-96,54,-87
395170594,-2844,-160,15956,-59,177,-62
395174064,-2804,-212,16080,-110,73,-38
395177534,-2868,-224,15892,-62,115,-63
395181004,-2916,-176,16072,-108,177,-41
395184561,-2720,-200,15964,-89,43,-72
395187944,-2856,-200,16004,-81,188,-48
395191439,-2804,-148,15940,-79,69,-70
395194797,-2760,-368,15948,-62,140,-75
395198267,-2788,-192,16124,-129,77,-64
395201737,-2728,-188,15960,-61,78,-68
395205120,-2860,-208,16068,-120,127,-77
395208677,-2772,-192,15920,-91,61,-52
395212060,-2800,-200,15948,-96,198,-64
395215534,-2848,-244,16036,-88,46,-78
395218938,-2836,-184,15840,-52,158,-51
395222384,-2880,-180,16000,-109,52,-86
395225854,-2864,-248,15824,-63,106,-53
395229324,-2840,-256,15864,-131,123,-57
395232881,-2824,-172,15968,-95,87,-53
395236264,-2856,-320,15884,-80,189,-60
395239734,-2792,-224,15920,-95,50,-68
395243159,-2796,-240,16008,-61,146,-50
395246587,-2928,-188,15928,-121,109,-103
395250230,-2812,-308,16016,-77,88,-45
395253614,-2852,-228,15980,-98,188,-65
395257084,-2824,-220,15972,-101,52,-36
395260554,-2752,-240,15904,-80,151,-56
395264024,-2720,-184,16068,-100,44,-67
395267542,-2940,-260,16088,-33,104,-48
395270964,-2728,-224,15824,-118,87,-71
395274434,-2796,-228,16144,-79,68,-72
395277817,-2900,-316,15892,-99,169,-67
395281287,-2832,-280,16016,-82,45,-51
395284670,-2704,-192,15948,-85,180,-49
395288140,-2796,-312,15924,-119,37,-83
395291646,-2832,-180,15976,-38,164,-46
395295085,-2752,-216,15932,-103,67,-67
395298550,-2780,-168,16116,-86,79,-57
395301934,-2828,-140,15944,-134,121,-51
395305490,-2852,-176,16092,-76,60,-75
395308874,-2960,-236,15984,-102,158,-61
395312430,-2816,-148,15988,-95,51,-66
395315838,-2880,-164,15900,-70,164,-41
395319283,-2876,-184,16016,-125,85,-58
395322754,-2868,-276,15916,-47,121,-41
395326223,-2868,-244,15936,-118,160,-91
395329780,-2780,-236,15852,-72,64,-78
395333164,-2748,-244,15916,-121,137,-82
395336720,-2776,-272,16020,-109,62,-59
395340190,-2856,-212,15892,-65,116,-59
395343702,-2756,-192,15988,-102,70,-57
395347130,-2820,-284,15908,-65,43,-41
395350514,-2848,-360,16008,-119,141,-74
395354070,-2860,-232,15992,-60,84,-43
395357453,-2876,-220,15924,-115,195,-60
395361010,-2884,-220,16048,-84,68,-62
395364394,-2908,-244,15956,-42,155,-59
395367912,-2776,-248,15984,-101,73,-66
395371334,-2800,-100,16012,-67,76,-64
395374717,-2852,-220,15960,-109,136,-71
395378273,-2812,-80,15920,-94,53,-54
395381570,-2900,-200,16072,-110,161,-36
395385127,-2832,-200,16044,-116,51,-58
395388597,-2712,-284,15928,-63,192,-44
395392091,-2848,-256,15968,-121,103,-66
395395623,-2784,-256,15992,-73,116,-48
395399093,-2824,-204,15960,-90,169,-96
395402563,-2768,-144,15964,-82,81,-25
395405947,-2796,-176,15872,-80,161,-61
395409417,-2728,-200,16072,-75,49,-48
395412800,-2800,-196,15988,-69,187,-81
395416294,-2740,-208,16040,-118,68,-51
395419740,-2764,-284,15976,-56,134,-43
395423210,-2944,-228,15956,-109,102,-35
395426767,-2784,-192,15964,-79,92,-52
395430150,-2828,-240,15836,-79,182,-49
395433620,-2812,-244,16080,-93,70,-53
395437003,-2772,-292,15976,-46,154,-45
395440477,-2800,-176,15860,-118,39,-49
395443985,-2828,-152,16004,-49,97,-55
395447327,-2708,-220,16004,-125,116,-87
395450883,-2872,-236,16044,-95,44,-67
395454266,-2828,-220,15944,-97,212,-58
395457737,-2884,-316,16032,-97,39,-53
395461120,-2864,-196,16020,-88,146,-39
395464590,-2836,-316,16036,-100,54,-79
395468108,-2792,-268,15880,-67,90,-42
395471443,-2880,-228,15984,-103,99,-71
395474913,-2880,-204,16068,-68,37,-69
395478296,-2756,-224,16028,-133,146,-65
395481853,-2860,-244,15912,-75,45,-75
395485236,-2832,-204,15932,-72,171,-52
395488706,-2848,-188,16024,-146,61,-69
395492201,-2800,-192,15968,-52,133,-42
395495646,-2796,-240,16044,-94,137,-85
395499116,-2840,-208,15984,-69,89,-66
395502500,-2812,-188,15956,-113,155,-74
395506056,-2804,-160,15904,-91,67,-28
395509440,-2880,-192,15928,-97,172,-73
395512910,-2736,-148,15928,-111,58,-60
395516404,-2876,-204,15904,-59,150,-35
395519850,-2704,-312,15976,-133,117,-80
395523406,-2756,-224,16040,-59,100,-66
395526876,-2852,-312,15988,-85,173,-38
395530346,-2908,-296,15952,-94,63,-67
395533729,-2940,-260,16068,-60,171,-41
395537200,-2900,-184,15908,-106,78,-88
395540673,-2944,-168,15948,-55,100,-31
395544181,-2780,-224,16068,-124,85,-86
395547610,-2864,-108,15980,-87,48,-60
395550993,-2812,-348,15984,-119,151,-68
395554550,-2828,-200,16032,-92,37,-78
395557933,-2916,-212,15864,-86,171,-62
395561403,-2840,-236,15976,-90,67,-54
395564786,-2840,-220,15832,-64,122,-55
395568317,-2668,-220,15908,-123,126,-70
395571813,-2880,-204,16008,-59,82,-40
395575196,-2900,-68,15884,-134,111,-74
395578666,-2780,-280,15816,-90,58,-58
395582049,-2776,-316,15860,-111,172,-43
395585606,-2780,-192,16008,-106,56,-68
395589076,-2836,-268,15876,-62,195,-51
395592570,-2740,-220,15936,-104,95,-85
395596016,-2760,-276,16152,-61,99,-63
395599399,-2836,-252,15960,-90,172,-17
395602869,-2824,-212,15960,-102,98,-76
395606339,-2764,-192,16096,-78,185,-52
395609809,-2956,-192,15936,-90,52,-65
395613192,-2852,-220,15824,-44,122,-53
395616687,-2772,-128,15940,-116,88,-84
395620132,-2860,-172,15884,-77,80,-63
395623516,-2832,-240,16084,-113,172,-49
395627073,-2872,-168,15928,-90,82,-58
395630456,-2772,-188,15992,-61,152,-64
395633926,-2716,-176,16152,-87,80,-86
395637309,-2720,-200,16068,-84,126,-69
395640802,-2804,-272,15976,-117,82,-82
395644284,-2752,-232,15888,-63,62,-68
395647632,-2920,-204,15908,-116,163,-75
395651189,-2760,-212,15996,-92,51,-76
395654572,-2888,-144,15896,-83,184,-61
395658042,-2724,-256,15944,-100,62,-78
395661512,-2736,-300,16028,-60,143,-68
395664982,-2816,-244,15940,-98,115,-58
395668501,-2920,-256,16040,-65,88,-61
395671835,-2852,-244,15904,-116,111,-87
395675392,-2872,-272,16092,-83,66,-49
395678775,-2828,-268,15988,-101,169,-55
395682332,-2736,-244,15936,-100,44,-47
395685802,-2776,-260,15916,-46,168,-31
395689272,-2760,-132,16060,-105,88,-52
395692767,-2804,-232,15848,-70,118,-62
395696212,-2788,-188,15916,-116,125,-81
395699769,-2792,-156,15960,-70,67,-35
395703152,-2880,-188,16016,-89,169,-50
395706622,-2860,-128,15980,-92,54,-84
395710006,-2760,-204,16100,-67,138,-43
395713476,-2772,-176,16044,-113,80,-65
395716970,-2816,-256,16104,-44,90,-87
395720329,-2772,-216,16076,-127,103,-61
395723886,-2820,-260,16008,-87,73,-89
395727269,-2824,-340,15928,-137,162,-70
395730826,-2852,-292,15864,-112,53,-94
395734295,-2780,-192,15908,-78,179,-68
395737765,-2868,-240,15956,-110,101,-43
395741346,-2824,-212,16020,-53,119,-62
395744827,-2852,-200,16100,-139,184,-80
395748349,-2904,-172,15972,-66,82,-68
395751732,-2860,-180,16024,-92,194,-75
395755202,-2908,-144,16028,-110,42,-59
395758672,-2716,-160,15896,-58,156,-39
395762142,-2772,-160,15976,-85,62,-89
395765529,-2812,-200,15968,-81,79,-77
395768957,-2940,-200,15924,-122,167,-67
395772465,-2840,-156,15956,-80,84,-63
395775849,-2764,-228,16004,-62,183,-61
395779319,-2836,-196,15992,-72,51,-69
395782702,-2860,-116,15840,-63,133,-32
395786172,-2816,-216,15996,-118,75,-74
395789642,-2792,-148,16028,-72,62,-54
395793050,-2764,-200,16088,-108,154,-83
395796582,-2780,-188,16016,-111,63,-67
395800052,-2944,-204,16088,-96,182,-54
395803522,-2824,-132,16196,-87,55,-72
395806905,-2872,-272,15980,-81,133,-37
395810375,-2860,-112,15984,-115,128,-68
395813932,-2900,-228,15856,-79,66,-55
395817340,-2824,-256,15948,-88,182,-60
395820785,-2792,-196,15876,-97,59,-74
395824169,-2716,-172,15948,-82,160,-62
395827638,-2752,-196,16260,-114,60,-54
395831108,-2856,-268,15972,-65,128,-36
395834579,-2784,-240,15744,-137,129,-106
395838222,-2744,-200,16024,-71,96,-32
395841628,-2876,-240,15860,-119,183,-59
395845197,-2832,-268,16032,-84,39,-78
395848545,-2924,-168,16008,-56,150,-65
395852015,-2816,-220,15888,-92,42,-63
395855399,-2908,-232,16004,-69,93,-60
395858782,-2812,-228,15996,-129,124,-62
395862338,-2780,-280,16024,-103,60,-51
395865857,-2716,-216,16028,-95,180,-48
395869279,-2772,-196,16020,-107,70,-62
395872749,-2824,-220,16096,-66,144,-52
395876219,-2860,-268,15976,-97,95,-91
395879602,-2928,-276,16104,-69,102,-49
395883072,-2964,-308,16036,-138,143,-27
395886629,-2848,-276,16004,-89,57,-39
395890012,-2784,-216,15876,-86,158,-79
395893506,-2824,-164,15948,-100,72,-65
395896952,-2752,-260,15892,-73,161,-68
395900422,-2904,-204,16088,-108,90,-92
395903892,-2844,-204,16000,-67,105,-44
395907362,-2868,-156,16020,-107,182,-29
395910918,-2712,-240,16012,-80,59,-75
395914302,-2772,-284,15844,-76,172,-40
395917796,-2768,-216,16076,-103,41,-61
395921242,-2788,-220,15980,-45,135,-85
395924712,-2776,-172,15928,-119,64,-59
395928182,-2704,-228,16124,-68,82,-79
395931565,-2728,-172,15888,-142,169,-58
395935122,-2768,-256,16104,-86,62,-52
395938505,-2816,-152,15916,-84,169,-54
395941998,-2824,-312,16048,-106,61,-42
395945480,-2760,-272,15904,-83,149,-48
395948915,-2756,-216,16048,-116,143,-82
395952472,-2844,-72,15996,-91,89,-62
395955768,-2936,-148,15952,-126,127,-72
395959325,-2872,-192,15972,-103,73,-74
395962795,-2820,-212,15872,-57,141,-64
395966314,-2816,-240,15912,-115,75,-85
395969735,-2696,-212,16004,-83,159,-33
395973205,-2920,-288,15904,-118,101,-64
395976762,-2828,-240,15912,-91,54,-62
395980145,-2748,-296,16012,-103,159,-63
395983702,-2828,-240,15908,-78,84,-59
395987085,-2856,-80,15976,-69,171,-44
395990472,-2900,-104,15936,-99,47,-70
395993876,-2752,-312,16160,-43,141,-57
395997321,-2956,-256,15956,-113,48,-57
396000792,-2860,-324,15964,-73,66,-66
396004175,-2804,-168,15984,-102,117,-69
396007732,-2832,-172,16036,-79,63,-73
396011115,-2848,-236,16068,-90,167,-51
396014585,-2848,-168,15932,-95,58,-66
396017993,-2848,-256,15816,-58,146,-57
396021438,-2796,-292,15912,-94,56,-55
396024821,-2756,-136,15968,-80,90,-47
396028204,-2888,-180,15944,-105,76,-73
396031675,-2792,-296,15840,-56,77,-51
396035058,-2800,-216,15996,-108,187,-77
396038615,-2832,-180,15916,-83,38,-89
396042021,-2868,-180,15844,-106,187,-65
396045590,-2812,-152,16016,-99,51,-72
396048938,-2824,-300,16036,-63,146,-59
396052408,-2812,-308,16044,-108,60,-73
396055878,-2928,-324,15976,-77,103,-46
396059348,-2708,-300,15884,-113,114,-84
396062904,-2904,-248,15968,-77,48,-41
396066390,-2876,-244,15844,-55,140,-55
396069758,-2856,-156,16092,-110,64,-57
396073228,-2748,-220,16100,-49,135,-56
396076698,-2744,-332,15812,-117,125,-54
396080255,-2708,-204,15972,-49,101,-77
396083725,-2852,-212,15816,-87,168,-76
396087194,-2804,-212,15860,-104,64,-81
396090668,-2824,-216,16092,-50,158,-57
396094159,-2848,-260,15940,-106,40,-62
396097604,-2796,-280,16008,-35,114,-46
396101075,-2924,-196,15936,-114,77,-80
396104545,-2828,-180,16076,-87,83,-70
396107928,-2676,-184,16056,-123,122,-71
396111485,-2724,-212,16008,-90,76,-81
396114868,-2704,-164,15900,-86,162,-61
396118362,-2772,-252,15988,-119,91,-43
396121808,-2740,-200,16140,-44,158,-33
396125278,-2804,-232,15924,-105,114,-71
396128835,-2732,-212,16000,-59,117,-79
396132304,-2772,-216,15940,-119,139,-77
396135861,-2852,-176,15876,-79,73,-89
396139244,-2904,-208,15928,-101,188,-49
396142825,-2828,-152,15992,-76,32,-69
396146223,-2772,-252,15992,-54,147,-78
396149655,-2732,-128,15980,-115,72,-58
396153125,-2684,-140,15756,-99,87,-41
396156508,-2848,-192,15944,-115,171,-75
396160064,-2840,-172,16040,-94,55,-50
396163448,-2912,-328,15900,-57,169,-44
396166966,-2836,-160,15908,-114,53,-88
396170388,-2812,-212,16032,-42,95,-48
396173771,-2824,-232,16104,-114,102,-58
396177328,-2744,-220,15944,-69,74,-61
396180711,-2764,-184,16004,-121,136,-77
396184268,-2716,-164,15952,-79,61,-92
396187651,-2836,-212,16088,-89,163,-47
396191146,-2720,-240,15968,-113,77,-53
396194591,-2768,-232,15820,-70,173,-77
396198061,-2804,-148,15996,-101,96,-81
396201531,-2868,-204,15948,-57,113,-46
396205001,-2768,-212,15912,-114,139,-40
396208558,-2804,-240,15956,-75,58,-80
396211941,-2740,-224,16008,-91,172,-61
396215415,-2788,-188,15992,-84,53,-34
396218819,-2712,-64,15964,-59,155,-43
396222178,-2820,-236,15992,-104,63,-90
396225647,-2820,-192,16048,-73,176,-47
396229118,-2760,-220,16056,-141,112,-63
396232674,-2816,-152,15996,-83,98,-55
396236058,-2776,-276,15896,-103,176,-60
396239614,-2780,-200,15916,-65,72,-57
396243021,-2856,-192,16008,-53,183,-65
396246502,-2824,-272,15940,-100,65,-60
396249937,-2964,-432,16052,-70,117,-39
396253407,-2748,-232,16036,-105,81,-96
396256877,-2780,-240,15880,-76,79,-49
396260261,-2824,-268,15956,-120,166,-82
396263817,-2844,-80,16000,-114,46,-45
396267249,-2888,-212,15920,-69,188,-67
396270671,-2840,-200,16088,-107,57,-69
396274141,-2816,-252,15988,-73,134,-79
396277611,-2752,-268,16052,-94,143,-48
396281081,-2788,-220,15964,-88,77,-71
396284464,-2824,-200,15936,-99,126,-87
396287934,-2876,-132,15964,-96,49,-61
396291342,-2736,-124,16064,-101,168,-70
396294874,-2768,-216,15888,-111,72,-82
396298344,-2840,-280,16060,-64,155,-70
396301814,-2748,-200,15888,-104,115,-51
396305371,-2792,-200,15932,-101,112,-46
396308927,-2824,-224,15892,-86,165,-55
396312397,-2892,-256,15976,-76,68,-51
396315805,-2852,-228,15988,-76,177,-37
396319251,-2816,-156,16088,-93,47,-88
396322634,-2716,-220,16104,-50,121,-44
396326104,-2864,-140,15792,-86,70,-69
396329487,-2800,-212,15952,-79,63,-48
396332871,-2712,-180,15960,-127,162,-68
396336427,-2852,-228,16028,-94,65,-77
396339810,-2720,-296,16124,-75,188,-48
396343304,-2756,-216,15952,-113,66,-76
396346785,-2808,-308,15984,-72,159,-62
396350220,-2712,-188,16020,-86,41,-87
396353604,-2760,-292,16144,-61,84,-69
396356987,-2784,-196,16024,-144,190,-74
396360544,-2764,-264,15920,-82,49,-63
396363927,-2736,-148,16092,-90,185,-76
396367445,-2940,-168,15968,-116,70,-66
396370867,-2900,-216,16020,-58,164,-58
396374337,-2856,-224,15940,-125,115,-68
396377894,-2800,-256,15940,-77,92,-47
396381277,-2760,-284,16076,-108,189,-73
396384834,-2784,-204,15956,-82,42,-62
396388217,-2748,-256,15908,-63,178,-53
396391711,-2832,-252,15932,-94,21,-64
396395070,-2780,-244,16032,-71,164,-75
396398540,-2820,-224,15940,-104,73,-61
396402010,-2804,-228,16004,-75,116,-35
396405480,-2780,-176,15956,-113,168,-63
396409037,-2792,-256,16056,-84,46,-78
396412420,-2852,-212,15832,-82,183,-55
396415915,-2836,-216,15916,-93,45,-55
396419274,-2816,-184,16112,-61,141,-66
396422744,-2824,-172,15896,-100,70,-68
396426214,-2708,-180,16100,-69,81,-52
396429597,-2820,-200,16108,-125,124,-67
396433153,-2712,-184,15932,-87,60,-30
396436537,-2836,-244,15832,-130,160,-82
396440094,-2792,-228,15960,-100,48,-64
396443587,-2772,-252,16108,-81,162,-47
396447068,-2888,-236,16012,-129,85,-84
396450504,-2852,-220,16144,-89,130,-63
396453974,-2884,-200,16084,-119,150,-71
396457530,-2812,-268,15944,-75,53,-71
396460913,-2788,-228,15932,-103,184,-73
396464470,-2788,-204,16048,-92,15,-84
396467902,-2812,-248,15988,-65,153,-32
396471323,-2676,-228,16100,-99,73,-91
396474707,-2824,-288,15992,-53,151,-58
396478177,-2808,-244,15956,-128,112,-67
396481734,-2840,-204,15948,-55,102,-57
396485203,-2752,-132,15912,-78,165,-79
396488674,-2856,-224,15900,-107,69,-54
396492168,-2912,-268,15888,-72,176,-53
396495613,-2712,-244,16016,-87,59,-52
396498997,-2856,-272,16012,-91,150,-44
396502467,-2824,-136,16012,-113,43,-89
396505937,-2772,-88,15984,-64,113,-71
396509320,-2844,-148,15956,-140,110,-69
396512877,-2804,-216,15828,-91,44,-49
396516285,-2780,-236,15928,-123,197,-65
396519817,-2720,-260,16112,-60,70,-59
396523200,-2916,-328,16004,-89,157,-51
396526670,-2844,-132,15988,-88,51,-71
396530053,-2796,-204,15888,-74,161,-44
396533523,-2888,-220,15964,-82,64,-77
396536906,-2760,-300,16024,-74,102,-40
396540380,-2836,-180,15944,-91,98,-74
396543783,-2776,-152,16052,-70,58,-64
396547178,-2800,-212,15952,-132,150,-69
396550700,-2816,-252,15980,-89,69,-67
396554083,-2836,-224,16132,-73,167,-56
396557553,-2860,-156,15964,-101,94,-98
396561023,-2868,-128,15956,-59,132,-87
396564493,-3016,-240,15888,-101,136,-57
396568110,-2824,-216,15988,-91,90,-64
396571433,-2824,-164,16012,-85,184,-72
396574903,-2868,-176,16004,-92,66,-25
396578286,-2716,-256,15780,-101,166,-68
396581843,-2776,-220,15980,-114,53,-62
396585313,-2748,-296,16012,-64,163,-81
396588783,-2780,-172,15892,-105,74,-61
396592278,-2764,-228,16064,-59,115,-54
396595723,-2760,-176,15936,-96,145,-79
396599193,-2900,-232,16116,-70,55,-46
396602576,-2868,-216,15872,-69,183,-61
396606046,-2760,-200,16036,-115,40,-76
396609516,-2688,-340,15880,-73,146,-47
396612986,-2808,-308,16016,-109,63,-72
396616481,-2776,-228,16044,-84,127,-62
396619926,-2836,-140,16036,-124,98,-57
396623396,-2744,-284,15988,-64,79,-77
396626780,-2748,-200,15980,-107,176,-42
396630336,-2776,-212,16152,-81,53,-57
396633720,-2840,-172,15880,-86,183,-67
396637190,-2804,-364,16016,-100,88,-62
396640663,-2872,-316,15960,-47,127,-54
396644153,-2896,-160,16004,-127,141,-56
396647721,-2848,-288,15892,-68,83,-69
396651069,-2904,-108,16052,-113,130,-71
396654626,-2764,-164,16096,-101,62,-67
396658096,-2760,-232,15988,-68,123,-32
396661566,-2836,-212,16088,-93,78,-58
396664949,-2940,-176,15900,-60,145,-49
396668468,-2812,-224,15960,-122,134,-68
396671976,-2876,-188,15924,-87,86,-66
396675360,-2820,-80,15984,-83,172,-64
396678743,-2848,-164,15916,-81,33,-73
396682126,-2780,-192,15992,-74,148,-55
396685596,-2776,-196,15976,-101,71,-63
396689066,-2944,-236,15960,-61,101,-57
396692561,-2828,-224,16076,-127,119,-104
396696179,-2776,-200,15968,-87,64,-77
396699563,-2876,-272,16032,-76,172,-45
396703033,-2856,-184,15944,-89,39,-66
396706416,-2852,-284,16000,-73,185,-70
396709886,-2796,-268,16124,-110,68,-85
396713356,-2812,-220,16040,-96,126,-80
396716851,-2800,-200,16036,-107,142,-63
396720383,-2848,-164,16056,-73,81,-62
396723766,-2868,-320,16064,-118,152,-51
396727323,-2828,-172,16036,-83,54,-78
396730706,-2820,-264,15892,-81,186,-55
396734176,-2800,-172,16012,-91,65,-72
396737559,-2944,-260,16020,-62,162,-62
396741053,-2824,-188,15884,-87,135,-70
396744499,-2832,-164,15960,-58,103,-67
396748004,-2780,-272,16072,-112,168,-80
396751526,-2916,-168,15916,-79,77,-64
396754909,-2820,-204,15896,-84,180,-49
396758379,-2836,-132,15960,-88,72,-89
396761762,-2796,-304,16004,-68,99,-56
396765146,-2884,-172,16032,-121,90,-91
396768664,-2772,-240,16028,-89,61,-56
396771999,-2832,-268,15992,-120,166,-78
396775556,-2872,-204,16060,-43,71,-47
396778939,-2816,-236,16016,-109,166,-59
396782496,-2796,-200,15996,-76,72,-79
396785879,-2888,-200,15920,-54,137,-65
396789349,-2820,-252,16116,-118,87,-75
396792844,-2736,-128,15968,-84,92,-87
396796202,-2780,-92,15984,-93,147,-47
396799586,-2732,-232,15980,-78,44,-61
396802969,-2868,-180,15832,-88,191,-62
396806439,-2756,-172,15928,-83,37,-48
396809822,-2772,-144,16104,-68,167,-56
396813292,-2784,-256,15908,-92,51,-55
396816700,-2956,-240,16028,-38,111,-62
396820145,-2856,-280,16000,-131,84,-53
396823615,-2756,-164,15980,-80,70,-52
396826999,-2864,-248,15960,-109,138,-64
396830555,-2804,-252,15964,-114,54,-67
396834025,-2700,-260,15968,-83,195,-54
396837495,-2804,-200,15996,-127,69,-48
396840989,-2820,-224,16008,-68,165,-70
396844435,-2688,-212,15988,-124,100,-86
396848030,-2728,-212,15912,-57,110,-43
396851462,-2980,-248,15848,-109,197,-62
396855019,-2852,-260,15904,-97,54,-46
396858402,-2880,-192,16040,-98,170,-64
396861872,-2808,-132,15928,-81,40,-66
396865259,-2772,-172,16040,-50,117,-66
396868774,-2780,-312,15924,-94,68,-63
396872109,-2852,-172,15948,-61,129,-84
396875578,-2860,-220,15928,-126,166,-60
396879135,-2808,-216,15980,-83,67,-92
396882518,-2752,-248,16040,-73,191,-48
396885989,-2816,-168,15876,-99,50,-56
396889372,-2820,-140,15944,-43,167,-37
396892871,-2836,-252,15852,-99,66,-81
396896225,-2756,-232,15936,-79,116,-56
396899695,-2836,-224,15852,-107,113,-67
396903252,-2796,-208,15828,-69,74,-55
396906635,-2824,-256,15904,-111,137,-59
396910192,-2776,-184,15932,-111,73,-72
396913662,-2816,-288,15860,-83,169,-52
396917156,-2812,-256,16040,-79,86,-36
396920515,-2840,-196,15992,-60,142,-67
396923985,-2828,-140,15996,-105,54,-78
396927455,-2744,-240,16016,-54,98,-74
396930838,-2904,-172,15892,-122,105,-91
396934395,-2852,-264,16012,-89,79,-81
396937778,-2888,-176,15940,-111,156,-68
396941358,-2824,-220,15816,-113,55,-49
396944805,-2744,-180,15892,-53,163,-54
396948310,-2788,-132,15872,-137,101,-92
396951832,-2772,-220,15872,-68,94,-65
396955215,-2724,-240,15980,-99,180,-65
396958685,-2724,-196,15932,-70,47,-63
396962068,-2772,-264,16092,-67,143,-44
396965542,-2756,-248,15952,-100,65,-39
396969058,-2844,-192,16032,-77,96,-53
396972392,-2832,-252,16008,-145,125,-66
396975948,-2872,-252,15960,-95,64,-70
396979331,-2860,-184,16116,-90,183,-70
396982802,-2876,-244,16052,-103,50,-65
396986271,-2828,-356,15916,-74,167,-70
396989742,-2704,-172,15884,-100,41,-50
396993236,-2784,-160,15952,-64,127,-56
396996682,-2724,-160,15936,-100,67,-74
397000151,-2816,-284,16056,-78,88,-62
397003535,-2824,-244,16008,-135,134,-81
397007092,-2724,-232,15968,-89,58,-81
397010475,-2884,-248,15976,-96,185,-62
397013945,-2912,-308,15980,-105,23,-52
397017439,-2872,-264,16040,-53,187,-55
397020885,-2848,-156,16100,-99,100,-106
397024442,-2824,-248,16068,-57,102,-32
397027911,-2712,-200,15944,-127,153,-65
397031468,-2744,-160,15912,-79,65,-74
397034852,-2744,-220,16016,-54,185,-24
397038321,-2828,-236,15968,-116,46,-96
397041815,-2832,-100,16000,-45,112,-89
397045261,-2780,-200,15976,-110,59,-79
397048766,-2872,-160,15916,-71,75,-65
397052115,-2752,-172,15908,-114,142,-41
397055672,-2780,-164,16008,-86,49,-43
397059055,-2860,-132,15960,-90,173,-85
397062525,-2768,-244,16044,-111,76,-65
397066097,-2880,-124,15936,-70,124,-63
397069465,-2808,-244,15760,-115,141,-103
397073108,-2856,-220,15876,-89,79,-46
397076492,-2856,-276,16012,-65,206,-59
397079961,-2856,-208,15908,-107,33,-77
397083431,-2748,-224,15940,-65,151,-63
397086902,-2800,-380,15996,-99,73,-73
397090288,-2848,-180,15996,-69,137,-82
397093779,-2896,-260,16036,-101,100,-74
397097311,-2844,-220,15912,-63,89,-41
397100695,-2888,-172,16164,-114,190,-69
397104251,-2840,-228,15972,-81,59,-51
397107635,-2852,-300,15848,-67,160,-74
397111105,-2832,-172,16036,-96,46,-56
397114488,-2836,-164,15788,-68,111,-65
397117982,-2832,-216,15996,-108,91,-70
397121428,-2860,-268,16036,-51,71,-55
397124811,-2808,-228,15968,-93,153,-66
397128281,-2856,-156,16020,-92,47,-60
397131665,-2728,-212,16028,-84,186,-64
397135135,-2832,-268,16108,-91,53,-51
397138518,-2872,-348,15916,-54,148,-66
397142011,-2728,-164,15996,-97,64,-69
397145371,-2824,-240,16012,-74,94,-69
397148797,-2888,-232,15996,-117,136,-76
397152311,-2760,-232,16008,-94,45,-63
397155694,-2812,-252,16036,-83,174,-85
397159164,-2844,-252,15976,-112,70,-59
397162634,-2804,-264,15952,-90,169,-68
397166153,-2752,-284,16016,-116,135,-86
397169661,-2748,-184,15896,-84,72,-60
397173044,-2812,-156,16060,-95,204,-67
397176514,-2712,-212,15808,-68,32,-82
397179898,-2816,-204,15904,-84,188,-65
397183368,-2752,-240,15944,-99,37,-70
397186751,-2904,-244,16012,-80,168,-43
397190224,-2848,-156,15880,-106,93,-57
397193715,-2876,-244,16028,-65,109,-53
397197161,-2868,-184,16076,-125,137,-71
397200717,-2720,-104,16012,-79,36,-53
397204101,-2836,-188,15828,-81,190,-52
397207571,-2796,-200,16008,-116,46,-67
397211041,-2800,-296,16052,-45,97,-60
397214424,-2700,-192,16004,-86,46,-72
397217832,-2752,-204,16028,-72,132,-60
397221277,-2796,-192,15948,-138,155,-67
397224834,-2784,-240,15940,-64,99,-68
397228217,-2800,-200,16004,-83,186,-54
397231687,-2808,-312,16040,-76,51,-52
397235070,-2736,-240,15904,-49,133,-81
397238540,-2844,-112,16044,-101,60,-52
397242034,-2780,-248,15880,-49,86,-52
397245394,-2836,-244,16128,-127,103,-57
397248986,-2644,-196,16004,-86,46,-53
397252334,-2744,-164,16012,-108,157,-57
397255891,-2800,-180,16004,-83,57,-75
397259274,-2824,-240,15828,-66,161,-92
397262744,-2836,-180,15964,-108,87,-65
397266262,-2824,-204,15884,-60,124,-47
397269684,-2812,-300,15984,-113,128,-69
397273241,-2772,-156,15888,-84,81,-46
397276624,-2788,-240,15860,-128,152,-92
397280181,-2848,-184,15932,-91,56,-55
397283564,-2968,-176,15936,-94,186,-49
397287034,-2756,-244,16004,-101,65,-77
397290507,-2952,-236,15848,-74,147,-38
397293998,-2904,-216,16040,-115,114,-87
397297531,-2748,-296,15988,-82,91,-61
397300914,-2832,-256,15956,-70,169,-59
397304384,-2824,-296,16008,-100,49,-73
397307854,-2864,-248,16012,-74,131,-54
397311324,-2820,-240,15916,-83,67,-50
397314707,-2856,-224,15964,-88,104,-58
397318202,-2832,-172,15976,-107,108,-73
397321734,-2800,-256,15892,-81,65,-76
397325117,-2736,-204,15956,-91,184,-70
397328587,-2832,-256,15964,-101,68,-88
397332057,-2712,-188,15872,-65,145,-56
397335527,-2812,-244,15992,-99,109,-78
397338997,-2816,-216,15968,-81,90,-40
397342404,-2752,-304,15936,-104,160,-78
397345937,-2908,-160,16012,-100,74,-54
397349442,-2772,-164,15916,-79,187,-48
397352877,-2828,-320,15984,-75,51,-34
397356260,-2852,-180,16024,-60,172,-41
397359730,-2768,-244,16056,-101,74,-88
397363200,-2764,-172,15896,-49,142,-43
397366719,-2916,-132,15932,-108,142,-82
397370227,-2892,-156,15900,-64,68,-51
397373610,-2764,-192,16024,-93,191,-51
397377080,-2772,-216,15928,-106,41,-68
397380550,-2788,-280,16000,-66,157,-49
397384020,-2832,-216,16120,-120,45,-59
397387490,-2820,-164,15928,-73,88,-56
397390898,-2736,-236,15924,-130,120,-81
397394430,-2844,-212,15952,-73,65,-49
397397813,-2888,-216,16032,-80,180,-60
397401284,-2760,-216,15952,-145,82,-49
397404754,-2888,-228,15972,-47,149,-58
397408224,-2840,-144,15976,-108,130,-66
397411780,-2832,-244,15952,-53,77,-77
397415167,-2804,-240,15956,-80,161,-54
397418658,-2748,-192,16016,-76,68,-62
397422017,-2764,-204,16000,-84,181,-47
397425487,-2892,-196,15952,-108,61,-67
397428957,-2744,-228,16016,-63,136,-39
397432427,-2912,-260,15776,-107,130,-105
397436070,-2764,-232,16020,-109,48,-71
397439540,-2780,-144,15904,-85,182,-47
397443034,-2860,-244,16056,-95,45,-63
397446394,-2824,-156,16044,-49,175,-85
397449898,-2832,-248,15884,-97,48,-40
397453247,-2764,-164,15936,-63,120,-41
397456717,-2888,-176,15888,-85,75,-83
397460100,-2748,-220,16044,-79,58,-57
397463483,-2940,-244,15880,-111,140,-70
397467089,-2792,-184,15868,-69,41,-66
397470423,-2748,-216,15868,-83,157,-52
397473893,-2780,-196,16016,-135,84,-66
397477363,-2876,-140,15904,-69,104,-36
397480833,-2956,-284,16024,-92,189,-57
397484303,-2776,-180,15960,-90,51,-63
397487687,-2724,-204,15996,-79,173,-67
397491181,-2876,-268,16036,-114,78,-60
397494627,-2856,-212,15916,-66,134,-69
397498097,-2876,-244,15980,-108,134,-61
397501653,-2852,-212,15916,-82,59,-85
397505037,-2868,-204,15936,-97,156,-63
397508507,-2760,-256,15876,-87,65,-81
397511890,-2852,-216,15896,-74,159,-63
397515363,-2748,-220,15972,-86,36,-79
397518767,-2792,-192,16108,-49,134,-60
397522213,-2696,-216,15908,-100,86,-86
397525683,-2820,-180,15912,-82,82,-45
397529066,-2656,-308,16044,-129,134,-71
397532623,-2844,-200,15992,-46,80,-60
397536006,-2776,-248,15960,-81,166,-57
397539476,-2848,-180,16012,-93,63,-48
397542883,-2780,-96,16028,-67,145,-58
397546243,-2744,-180,15876,-114,94,-58
397549716,-2780,-284,15800,-86,85,-54
397553131,-2840,-176,15968,-114,169,-51
397556653,-2812,-212,15972,-99,39,-49
397560036,-2896,-268,15996,-84,168,-70
397563506,-2804,-208,15892,-85,72,-67
397566950,-2728,-208,15968,-77,151,-30
397570359,-2836,-212,15928,-103,66,-81
397573829,-2820,-232,16128,-76,81,-49
397577212,-2812,-188,16088,-117,129,-81
397580769,-2860,-288,15884,-71,62,-62
397584153,-2796,-284,15928,-87,167,-63
397587623,-2820,-192,16012,-121,56,-72
397591117,-2872,-200,16112,-77,175,-60
397594563,-2756,-200,16032,-114,71,-64
397598032,-2784,-140,15940,-55,121,-59
397601503,-2836,-244,15936,-127,147,-46
397605059,-2860,-316,15972,-75,72,-65
397608443,-2808,-244,16068,-83,190,-69
397611912,-2928,-300,15912,-94,50,-64
397615299,-2844,-184,15900,-99,202,-93
397618790,-2764,-228,15996,-96,34,-82
397622149,-2872,-320,15900,-68,152,-49
397625619,-2832,-132,16020,-97,107,-85
397629089,-2932,-164,15860,-88,119,-42
397632559,-2724,-300,16088,-116,165,-83
397636116,-2816,-320,15992,-68,55,-63
397639499,-2768,-196,16164,-83,185,-72
397642992,-2732,-236,15980,-93,60,-74
397646352,-2824,-204,16020,-60,126,-78
397649822,-2808,-244,15904,-109,65,-54
397653327,-2772,-220,15920,-90,84,-53
397656676,-2816,-188,16052,-118,123,-64
397660232,-2832,-232,15824,-113,63,-90
397663702,-2868,-212,15952,-56,147,-20
397667221,-2800,-232,16048,-118,81,-78
397670642,-2820,-148,15956,-94,109,-57
397674112,-2804,-332,15796,-119,163,-60
397677669,-2880,-228,16100,-61,49,-65
397681052,-2680,-180,16052,-131,161,-73
397684609,-2764,-180,16096,-105,63,-50
397688079,-2864,-328,16004,-64,121,-24
397691573,-2812,-144,16036,-98,91,-74
397694932,-2864,-196,15980,-58,121,-82
397698402,-2792,-256,15948,-104,157,-87
397701959,-2708,-204,16056,-70,79,-52
397705342,-2808,-172,15964,-80,168,-50
397708812,-2712,-180,15988,-88,61,-49
397712196,-2832,-248,15868,-59,166,-32
397715690,-2844,-212,16052,-104,43,-68
397719136,-2816,-196,15976,-95,103,-53
397722605,-2752,-160,15980,-140,134,-66
397726162,-2776,-220,15876,-57,49,-64
397729546,-2800,-256,16136,-110,184,-72
397733102,-2800,-228,15980,-101,66,-63
397736572,-2804,-116,16060,-42,152,-54
397740042,-2804,-272,16068,-117,109,-71
397743622,-2824,-224,15888,-66,119,-63
397747069,-2916,-208,15968,-107,152,-64
397750626,-2752,-124,15900,-90,73,-49
397754044,-2780,-164,16028,-75,172,-45
397757479,-2780,-208,16028,-96,39,-69
397760862,-2784,-240,15908,-77,148,-41
397764332,-2752,-240,16076,-100,57,-61
397767851,-2916,-316,15964,-67,108,-54
397771272,-2828,-224,15976,-109,107,-73
397774829,-2820,-208,16028,-99,70,-58
397778212,-2868,-220,15920,-101,154,-78
397781769,-2848,-260,15720,-99,59,-61
397785152,-2748,-312,15916,-76,159,-59
397788622,-2852,-280,15888,-83,48,-62
397792030,-2816,-192,15948,-66,137,-42
397795475,-2816,-256,15968,-107,76,-64
397798945,-2816,-236,15876,-74,86,-50
397802329,-2804,-256,16084,-125,162,-71
397805885,-2748,-200,16048,-100,45,-44
397809355,-2772,-212,16016,-107,172,-50
397812912,-2824,-192,15796,-115,72,-67
397816407,-2864,-208,16004,-80,142,-59
397819852,-2812,-288,15928,-123,113,-60
397823409,-2856,-240,15960,-61,112,-65
397826879,-2796,-128,16168,-101,171,-60
397830436,-2832,-280,15984,-95,64,-76
397833819,-2864,-152,16048,-57,156,-57
397837289,-2792,-264,15896,-98,42,-80
397840695,-2724,-196,15968,-77,102,-57
397844142,-2932,-212,16000,-120,112,-74
397847699,-2732,-148,16000,-96,63,-72
397851082,-2832,-192,15952,-99,183,-78
397854587,-2836,-244,15888,-89,43,-58
397857936,-2856,-180,15984,-61,150,-66
397861406,-2768,-168,15948,-126,107,-71
397864962,-2776,-220,15904,-62,104,-57
397868481,-2824,-224,16068,-101,175,-69
397871989,-2844,-212,16020,-70,61,-59
397875372,-2848,-204,16080,-65,182,-57
397878842,-2820,-204,15904,-99,26,-77
397882226,-2704,-112,15964,-46,159,-56
397885695,-2780,-252,16008,-126,66,-61
397889166,-2916,-148,16012,-66,128,-52
397892660,-2832,-244,16024,-117,158,-73
397896192,-2776,-220,16000,-92,66,-58
397899575,-2844,-248,15992,-73,177,-70
397903045,-2780,-316,15876,-93,52,-62
397906429,-2776,-288,15836,-68,137,-55
397909899,-2784,-152,16040,-123,57,-73
397913369,-2796,-300,15812,-84,73,-58
397916776,-2756,-196,15924,-110,139,-81
397920309,-2748,-232,16140,-86,65,-75
397923692,-2720,-200,16016,-91,175,-72
397927162,-2856,-228,16020,-112,51,-79
397930632,-2792,-148,16088,-65,199,-50
397934102,-2780,-224,15940,-98,63,-41
397937485,-2864,-204,15976,-55,134,-59
397940978,-2812,-284,16004,-109,69,-78
397944425,-2776,-380,16044,-70,69,-78
397947808,-2808,-284,15992,-133,134,-66
397951365,-2824,-304,15896,-71,45,-55
397954783,-2840,-316,15940,-114,190,-60
397958305,-2848,-200,15956,-84,43,-74
397961688,-2832,-216,16012,-88,193,-71
397965162,-2764,-228,16048,-118,65,-65
397968678,-2828,-216,15996,-49,149,-71
397972099,-2832,-236,16012,-126,128,-60
397975655,-2920,-248,16004,-80,87,-51
397979039,-2704,-224,15928,-89,162,-85
397982508,-2836,-208,15952,-106,81,-80
397985978,-2764,-200,15884,-69,150,-45
397989449,-2992,-176,16028,-102,64,-60
397992943,-2792,-252,15884,-51,125,-80
397996389,-2836,-160,16044,-95,76,-65
397999772,-2796,-232,15968,-66,116,-63
398003242,-2780,-240,15980,-122,137,-66
398006798,-2880,-148,15936,-115,70,-59
398010269,-2804,-220,15940,-100,163,-39
398013825,-2804,-172,15964,-97,61,-75
398017233,-2756,-276,15944,-51,159,-40
398020679,-2812,-236,15948,-108,40,-81
398024149,-2828,-260,15840,-88,97,-69
398027532,-2768,-156,15908,-104,107,-73
398031089,-2724,-164,16108,-102,40,-80
398034559,-2772,-220,16044,-83,201,-74
398038029,-2916,-212,16012,-114,70,-60
398041522,-2720,-240,15992,-62,177,-68
398044969,-2804,-240,15984,-110,101,-53
398048525,-2772,-172,16076,-53,116,-43
398051995,-2772,-284,15988,-109,148,-62
398055587,-2820,-164,16000,-72,57,-87
398058935,-2792,-264,15992,-77,185,-27
398062405,-2812,-204,16008,-85,37,-80
398065891,-2836,-184,16024,-84,124,-70
398069259,-2824,-192,15928,-119,83,-63
398072729,-2860,-208,15928,-69,73,-64
398076112,-2812,-252,15796,-121,163,-48
398079669,-2752,-220,15992,-90,59,-71
398083052,-2896,-196,16036,-90,181,-72
398086522,-2832,-220,16068,-82,57,-79
398089905,-2704,-116,16092,-54,157,-81
398093399,-2880,-236,15984,-96,41,-51
398096758,-2872,-128,15992,-68,80,-85
398100142,-2804,-248,15864,-131,102,-54
398103698,-2836,-148,16004,-69,59,-68
398107082,-2752,-152,16040,-105,154,-75
398110638,-2824,-156,16172,-80,42,-72
398114021,-2728,-212,16036,-57,174,-74
398117516,-2784,-232,16056,-111,88,-88
398120962,-2884,-140,16104,-50,111,-50
398124431,-2812,-236,16076,-103,184,-62
398127988,-2872,-160,16060,-82,53,-71
398131372,-2816,-268,15972,-83,157,-51
398134842,-2740,-216,15964,-66,21,-49
398138225,-2960,-136,16156,-83,172,-58
398141718,-2840,-260,15996,-105,102,-62
398145251,-2872,-200,16036,-57,121,-58
398148721,-2832,-160,16064,-96,158,-38
398152192,-2788,-160,16056,-93,74,-74
398155617,-2700,-112,15936,-80,186,-56
398159045,-2784,-248,15992,-85,30,-63
398162428,-2828,-212,15916,-63,160,-40
398165946,-2920,-120,16016,-101,41,-43
398169368,-2768,-164,15944,-71,98,-45
398172751,-2748,-184,16128,-94,127,-70
398176221,-2748,-264,15860,-91,57,-65
398179604,-2916,-220,15968,-95,163,-60
398183074,-2952,-308,15868,-78,68,-59
398186458,-2812,-268,15908,-55,179,-51
398189928,-2872,-224,15948,-105,47,-67
398193422,-2784,-84,15924,-60,106,-65
398196781,-2760,-192,16088,-93,84,-54
398200164,-2836,-296,16016,-97,78,-60
398203547,-2916,-196,15916,-106,171,-48
398207104,-2812,-300,15828,-93,59,-71
398210487,-2836,-236,15972,-62,170,-83
398213958,-2852,-240,15968,-105,60,-61
398217452,-2844,-108,16068,-55,133,-37
398220898,-2828,-220,15964,-87,63,-82
398224281,-2776,-240,16000,-75,106,-57
398227751,-2824,-228,15924,-123,107,-67
398231308,-2764,-148,15936,-83,50,-35
398234691,-2852,-176,15932,-117,197,-70
398238248,-2748,-324,16068,-108,59,-95
398241741,-2848,-184,15924,-51,138,-57
398245187,-2868,-200,15956,-108,133,-77
398248744,-2764,-136,15928,-67,103,-43
398252214,-2764,-280,15968,-113,187,-45
398255806,-2892,-272,15940,-73,37,-56
398259154,-2884,-200,15936,-72,146,-48
398262624,-2764,-200,15932,-92,63,-73
398266056,-2744,-212,15924,-59,89,-88
398269391,-2848,-264,15908,-127,135,-41
398272947,-2824,-212,16028,-83,48,-73
398276331,-2764,-248,16120,-87,189,-63
398279801,-2824,-304,15896,-98,74,-86
398283184,-2792,-224,16024,-55,140,-63
398286654,-2788,-204,16108,-104,45,-54
398290128,-2808,-228,15848,-74,103,-67
398293619,-2700,-144,15936,-96,106,-40
398297064,-2844,-144,15996,-88,52,-67
398300447,-2780,-136,15776,-101,179,-64
398304004,-2876,-212,16076,-80,78,-46
398307387,-2768,-204,15924,-64,170,-68
398310857,-2824,-184,16084,-128,70,-57
398314327,-2812,-204,16060,-57,126,-55
398317822,-2756,-204,16196,-102,175,-50
398321354,-2848,-188,16068,-77,59,-67
398324737,-2804,-204,15936,-85,164,-75
398328207,-2832,-324,16032,-73,21,-29
398331590,-2688,-280,15936,-71,114,-55
398335060,-2808,-208,15992,-122,78,-56
398338531,-2824,-224,16112,-93,71,-82
398341937,-2816,-204,16012,-126,124,-59
398345471,-2796,-144,16136,-122,63,-84
398348941,-2740,-180,16004,-99,182,-49
398352410,-2868,-168,16080,-88,49,-56
398355832,-2768,-260,16152,-50,158,-68
398359264,-2732,-220,15960,-99,77,-35
398362647,-2904,-216,16084,-80,150,-59
398366165,-2880,-172,15860,-107,64,-96
398369587,-2836,-152,16144,-79,74,-68
398372970,-2836,-228,16024,-111,157,-55
398376527,-2876,-132,15836,-79,66,-85
398379910,-2868,-196,16024,-81,157,-55
398383380,-2788,-224,16184,-107,52,-63
398386850,-2896,-252,15932,-54,143,-50
398390324,-2744,-260,15992,-113,145,-58
398393902,-2792,-176,16024,-68,90,-35
398397260,-2880,-256,15920,-88,175,-60
398400730,-2844,-248,15932,-82,41,-81
398404113,-2920,-252,16020,-70,157,-39
398407583,-2832,-256,16044,-84,55,-73
398410967,-2720,-144,16004,-67,122,-68
398414437,-2720,-284,15952,-108,89,-86
398417931,-2788,-228,16040,-65,126,-67
398421377,-2812,-268,16108,-72,166,-64
398424847,-2720,-216,16092,-81,44,-67
398428230,-2812,-180,15900,-62,173,-40
398431700,-2780,-224,15848,-121,38,-86
398435170,-2760,-260,16016,-61,121,-59
398438640,-2836,-208,15984,-112,69,-47
398442133,-2840,-248,15776,-68,107,-74
398445580,-2772,-176,15896,-125,139,-37
398449137,-2884,-216,15884,-89,45,-49
398452520,-2892,-292,15932,-98,162,-76
398456025,-2868,-276,15820,-104,67,-75
398459460,-2868,-228,16032,-62,153,-47
398462930,-2940,-184,15956,-100,41,-61
398466449,-2692,-212,15928,-66,121,-42
398469870,-2716,-216,15880,-112,119,-63
398473427,-2892,-224,16000,-99,32,-74
398476810,-2708,-232,16148,-88,164,-67
398480280,-2872,-184,16040,-90,52,-79
398483663,-2812,-232,16144,-74,179,-52
398487133,-2852,-144,15916,-93,68,-70
398490520,-2788,-204,15880,-54,150,-50
398494016,-2672,-172,16088,-117,142,-86
398497543,-2820,-196,15792,-66,86,-70
398500927,-2768,-228,15976,-79,216,-56
398504397,-2840,-172,15868,-109,41,-74
398507867,-2840,-124,15968,-66,155,-44
398511337,-2776,-200,16024,-98,43,-86
398514720,-2780,-248,16000,-51,152,-64
398518214,-2740,-224,15984,-121,122,-71
398521747,-2844,-200,15932,-54,91,-50
398525130,-2820,-220,16036,-82,181,-65
398528600,-2824,-348,15848,-87,89,-36
398531983,-2876,-212,16088,-63,183,-80
398535453,-2800,-300,15924,-105,63,-100
398539010,-2716,-260,15920,-57,121,-82
398542503,-2764,-232,16076,-102,76,-59
398545950,-2820,-104,15932,-81,72,-66
398549333,-2792,-264,16000,-106,141,-71
398552890,-2836,-244,15904,-88,41,-54
398556308,-2796,-224,16084,-107,183,-58
398559830,-2800,-228,15844,-105,22,-50
398563300,-2812,-132,16028,-61,169,-73
398566830,-2904,-268,15972,-144,102,-61
398570326,-2840,-204,15960,-56,113,-62
398573797,-2708,-176,16100,-109,162,-55
398577353,-2816,-156,15796,-75,33,-82
398580737,-2692,-180,15956,-61,134,-40
398584207,-2704,-124,16104,-103,68,-58
398587676,-2820,-264,15924,-71,87,-54
398591084,-2820,-204,15816,-109,117,-47
398594617,-2736,-160,15944,-81,53,-71
398598000,-2868,-152,16016,-103,186,-55
398601556,-2708,-228,15912,-91,74,-36
398604940,-2932,-240,15992,-58,169,-65
398608410,-2792,-280,15968,-121,53,-58
398611880,-2836,-232,15948,-56,107,-28
398615353,-2792,-268,15828,-108,119,-66
398618931,-2876,-224,15920,-87,82,-60
398622290,-2772,-176,16000,-126,154,-72
398625847,-2896,-232,15868,-89,51,-63
398629230,-2860,-256,15948,-84,154,-58
398632700,-2748,-152,15988,-115,82,-75
398636170,-2840,-264,15980,-64,140,-45
398639640,-2768,-256,16104,-135,126,-70
398643220,-2872,-264,15840,-80,91,-55
398646580,-2812,-212,15916,-106,177,-59
398650136,-2844,-244,15984,-79,48,-59
398653520,-2888,-200,16056,-67,142,-57
398657025,-2808,-208,15884,-87,52,-54
398660373,-2828,-252,16224,-58,149,-90
398663843,-2708,-112,15948,-103,84,-50
398667361,-2764,-160,15936,-65,89,-62
398670696,-2748,-136,16052,-135,124,-70
398674253,-3004,-172,15924,-96,67,-53
398677636,-2772,-280,16036,-97,169,-59
398681106,-2748,-180,16016,-84,41,-66
398684489,-2876,-188,15956,-69,158,-35
398687959,-2864,-188,16004,-104,77,-62
398691454,-2880,-320,16064,-51,112,-30
398694899,-2768,-224,16028,-117,104,-31
398698456,-2780,-200,15876,-59,68,-67
398701839,-2856,-272,16000,-128,169,-56
398705396,-2792,-176,16180,-92,77,-75
398708779,-2852,-128,15776,-54,149,-66
398712250,-2860,-184,15820,-131,107,-62
398715831,-2836,-312,15996,-66,86,-54
398719190,-2888,-160,15992,-136,187,-69
398722746,-2904,-184,16028,-91,67,-53
398726130,-2876,-348,15932,-85,171,-60
398729600,-2856,-264,16044,-80,62,-74
398732983,-2828,-236,15952,-60,98,-37
398736366,-2696,-188,15992,-110,87,-83
398739836,-2860,-212,16064,-57,94,-40
398743242,-2880,-152,15944,-122,164,-80
398746776,-2740,-176,15904,-84,50,-73
398750159,-2772,-220,16068,-80,173,-60
398753629,-2796,-184,15948,-87,36,-66
398757051,-2768,-288,16208,-46,139,-51
398760482,-2784,-176,15884,-102,72,-51
398763952,-2836,-184,15984,-86,99,-62
398767384,-2776,-304,15984,-134,117,-65
398770892,-2820,-180,16020,-78,57,-58
398774276,-2744,-160,15916,-90,178,-72
398777746,-2800,-220,15856,-112,59,-63
398781216,-2824,-232,15924,-66,142,-49
398784686,-2756,-244,15904,-116,72,-72
398788156,-2780,-160,15888,-99,105,-64
398791650,-2852,-232,15760,-110,106,-79
398795183,-2736,-192,15892,-83,63,-64
398798566,-2856,-228,16004,-122,174,-85
398802123,-2760,-252,16044,-82,57,-59
398805506,-2984,-144,16000,-102,174,-66
398809063,-2792,-136,16076,-115,70,-57
398812533,-2848,-244,15896,-37,127,-70
398816027,-2872,-236,15964,-106,172,-60
398819559,-2776,-216,15900,-89,64,-76
398822943,-2768,-264,16008,-87,160,-47
