Time,Accel_X,Accel_Y,Accel_Z,Gyro_X,Gyro_Y,Gyro_Z
41408243,-2740,-496,15104,35,122,279
41411564,-2476,-444,14824,25,397,48
41414750,-2788,-580,14972,-58,155,209
41418133,-2504,-476,14852,-77,279,207
41421516,-2840,-568,15112,-124,206,155
41424986,-2576,-388,14996,2,144,286
41428196,-2544,-412,14872,-188,338,15
41431579,-2940,-396,15284,54,127,317
41434876,-2396,-452,14828,-56,377,104
41438282,-2852,-416,15180,38,113,272
41441590,-2444,-488,14784,12,292,222
41444852,-2940,-384,15084,4,164,269
41448062,-2492,-416,14804,-76,314,134
41451445,-2816,-424,15064,-186,278,25
41454828,-2908,-424,15116,15,137,293
41458125,-2684,-392,14952,-106,289,122
41461643,-2668,-472,14916,-37,135,232
41464978,-2788,-360,14928,-31,274,196
41468361,-2472,-668,14912,-4,231,129
41471658,-2756,-460,15100,-47,297,229
41475041,-2640,-416,14904,-44,192,144
41478424,-2852,-364,14784,-2,308,179
41481721,-2704,-468,14988,-46,285,185
41485104,-2728,-380,14940,-95,230,143
41488512,-2624,-572,15008,-61,255,253
41491870,-2772,-440,14976,-81,152,193
41495254,-2764,-424,15004,-53,333,147
41498637,-2756,-372,15104,-32,183,148
41502020,-2596,-520,14876,13,302,140
41505317,-2784,-580,15200,-18,175,203
41508700,-2524,-480,14784,14,192,170
41512021,-2692,-480,14976,-73,337,113
41515380,-2712,-376,14908,-31,180,235
41518763,-2840,-480,15092,4,264,222
41521973,-2400,-556,14808,-85,128,227
41525356,-2956,-520,15184,-105,391,49
41528739,-2760,-544,15124,-36,160,281
41532122,-2624,-484,15076,-88,320,61
41535422,-2812,-408,15156,-8,191,216
41538739,-2632,-468,14848,-19,226,175
41542134,-2716,-400,14860,36,268,238
41545395,-2480,-440,14748,-12,238,119
41548778,-2992,-344,15052,-85,283,195
41552162,-2556,-556,14924,-18,175,165
41555545,-2616,-404,14924,-73,243,165
41558928,-2792,-532,15080,-56,224,223
41562372,-2476,-528,14680,-53,219,176
41565695,-2980,-364,15092,-10,234,282
41569078,-2532,-536,14828,10,254,85
41572288,-2752,-400,15004,-121,317,148
41575758,-2420,-392,14780,0,132,234
41578967,-2680,-464,14892,-67,406,52
41582264,-2744,-520,15040,-33,100,207
41585651,-2504,-328,14872,-36,206,154
41589055,-2992,-380,15084,-49,198,230
41592414,-2400,-572,14744,1,182,223
41595623,-2920,-388,14980,-113,279,190
41599093,-2600,-492,14864,-14,156,248
41602477,-2680,-512,14972,-25,280,216
41605860,-2656,-572,14900,36,174,199
41609156,-2628,-496,15152,-20,298,147
41612564,-2728,-440,14872,-31,207,229
41615923,-2404,-516,14800,-98,337,45
41619219,-3020,-416,15280,-101,212,205
41622689,-2328,-436,14788,-81,186,157
41626073,-2952,-392,15148,-179,347,110
41629543,-2816,-376,14952,-35,104,223
41632926,-2624,-412,14992,-28,277,185
41636332,-2788,-348,15148,-22,200,254
41639692,-2512,-484,14948,-36,282,102
41643111,-2872,-368,14964,17,207,276
41646372,-2328,-524,14708,-89,274,22
41649669,-2884,-464,14940,18,160,374
41652965,-2436,-516,14580,-124,287,41
41656348,-3036,-468,15432,97,183,285
41659645,-2228,-640,14688,-112,225,107
41663163,-2912,-392,15084,-59,234,179
41666498,-2492,-504,14812,-16,266,235
41669881,-2796,-404,14828,-103,214,116
41673351,-2792,-488,15148,121,236,279
41676735,-2616,-472,14976,-7,179,186
41680031,-2572,-348,14604,-61,347,99
41683328,-2924,-388,15104,-51,249,210
41686735,-2392,-512,14628,-48,215,205
41690099,-2936,-420,15284,-121,267,106
41693564,-2336,-496,14644,-46,96,270
41696861,-2880,-244,14996,-121,417,52
41700244,-2836,-444,15024,38,100,299
41703540,-2628,-392,14892,-42,375,84
41706837,-2880,-580,15260,54,133,287
41710133,-2556,-440,14908,-22,285,165
41713541,-2568,-508,14800,-29,240,208
41716900,-2536,-416,14816,-146,215,129
41720370,-2932,-520,15052,40,248,210
41723666,-2388,-636,14692,3,91,314
41726789,-2824,-372,14976,-103,418,0
41730086,-2808,-556,15260,24,44,318
41733296,-2388,-468,14664,-139,331,-10
41736789,-2884,-360,15128,31,125,338
41740062,-2472,-432,14748,20,246,180
41743394,-2912,-472,15140,18,295,187
41746655,-2556,-436,14860,66,67,289
41749865,-2480,-340,14456,-167,423,40
41753248,-3076,-284,15308,-34,110,310
41756631,-2216,-624,14716,41,223,259
41759928,-2904,-384,14928,-258,312,-38
41763446,-2432,-508,14860,114,123,328
41766781,-2588,-508,14908,-214,436,-52
41770251,-3124,-308,15268,150,13,393
41773548,-2588,-468,14812,-85,358,86
41776844,-3068,-544,15296,31,116,271
41780141,-2188,-456,14544,-124,355,45
41783524,-3444,-208,15532,-128,232,171
41787018,-2196,-584,14556,-50,224,160
41790377,-3160,-320,15280,-160,411,-1
41793760,-2652,-624,15032,160,12,410
41797057,-2384,-380,14592,-162,387,-21
41800527,-3072,-392,15160,14,91,317
41803737,-2256,-584,14688,6,270,188
41806946,-3028,-396,15160,17,189,259
41810246,-2308,-472,14512,-30,255,160
41813651,-3048,-296,15120,-160,296,45
41817009,-2576,-468,14992,44,112,266
41820306,-2764,-400,14792,-198,365,56
41823689,-2840,-480,15164,13,131,307
41826986,-2604,-388,14828,-42,293,119
41830369,-2752,-440,15144,-6,126,243
41833665,-2704,-376,14736,-64,309,118
41837072,-2912,-404,15076,21,189,259
41840345,-2504,-556,14924,-3,220,164
41843677,-2820,-428,15112,-43,265,215
41847025,-2704,-496,14932,-38,227,123
41850408,-2948,-552,15368,-73,272,231
41853791,-2400,-516,14680,-109,287,20
41857175,-2796,-512,15172,113,163,352
41860561,-2460,-436,14772,-184,262,63
41863989,-3028,-396,15172,47,88,292
41867151,-2404,-484,14688,-80,296,159
41870534,-2968,-376,14944,-79,230,154
41873917,-2728,-588,15132,35,298,242
41877214,-2716,-404,14884,-18,179,158
41880597,-2788,-408,14892,29,232,288
41883894,-2400,-576,14744,-140,260,52
41887301,-2752,-452,15208,-34,215,211
41890660,-2584,-436,14856,-89,203,200
41894043,-2608,-424,14968,-116,193,161
41897513,-2752,-376,15208,-59,241,209
41900897,-2576,-400,14828,-111,214,156
41904367,-2936,-424,15132,25,289,174
41907663,-2520,-548,14764,2,199,205
41910897,-2780,-404,15068,18,221,212
41914169,-2784,-472,14916,-116,287,82
41917553,-2888,-404,15008,-19,228,159
41920936,-2504,-552,14700,-51,282,231
41924319,-2864,-456,15188,-6,159,198
41927616,-2548,-448,15028,-66,274,194
41930999,-2912,-556,15160,-62,164,191
41934382,-2536,-508,14900,28,231,251
41937702,-2576,-404,14828,-99,326,74
41940975,-2724,-448,15080,117,105,336
41944393,-2524,-352,14764,-66,254,166
41947742,-2484,-400,14824,-80,210,150
41951125,-2844,-464,15112,-37,298,190
41954508,-2576,-512,14832,-41,172,176
41957891,-2880,-440,15180,17,200,258
41961237,-2496,-508,14932,-119,215,161
41964658,-2920,-484,14996,-16,161,183
41968041,-2716,-444,15020,-72,246,174
41971424,-2636,-344,14888,-6,232,171
41974721,-2724,-536,14964,-31,321,170
41978104,-2768,-472,15060,-7,208,154
41981401,-2664,-352,14856,16,241,203
41984697,-2652,-400,14896,-144,216,170
41988192,-2828,-352,15036,11,207,227
41991464,-2504,-400,14776,-97,168,201
41994847,-2884,-348,14880,-50,187,207
41998230,-2544,-500,14960,-55,299,145
42001613,-2804,-420,15008,-27,150,228
42004997,-2520,-400,14852,-25,308,152
42008380,-2844,-448,15068,3,151,261
42011614,-2460,-508,14912,-27,323,73
42014886,-2884,-384,15084,-72,164,197
42018269,-2372,-416,14696,-40,284,95
42021566,-3080,-332,15032,-26,208,324
42024949,-2472,-500,14884,-70,249,79
42028246,-2928,-416,15132,-41,240,241
42031629,-2628,-476,14920,-61,156,184
42035012,-2548,-464,15052,-129,352,117
42038505,-2980,-412,15044,20,215,275
42041779,-2616,-404,14820,-35,308,88
42045110,-2864,-480,15016,8,191,238
42048285,-2576,-464,14692,-66,314,39
42051581,-2952,-428,15196,9,227,305
42054791,-2848,-448,14720,-90,130,221
42058174,-2424,-528,14956,-15,319,216
42061660,-2788,-452,14872,-104,164,183
42065028,-2568,-440,14976,-17,280,154
42068411,-2788,-524,15196,15,245,282
42071707,-2516,-492,14664,11,158,194
42075004,-2816,-372,15024,-61,337,143
42078387,-2648,-404,15024,-10,118,282
42081770,-2744,-464,14844,-65,364,83
42085067,-2588,-376,14896,-36,154,234
42088475,-2520,-420,14636,-154,314,39
42091833,-2868,-500,15280,-10,199,242
42095217,-2440,-492,14792,-42,198,205
42098600,-2796,-368,14976,-38,296,207
42101983,-2532,-456,14916,-10,156,197
42105366,-2696,-488,15004,23,284,205
42108663,-2788,-508,14968,35,153,218
42111984,-2536,-372,14996,22,268,228
42115256,-2768,-448,14724,-32,256,194
42118639,-2744,-460,15028,-21,178,244
42122022,-2728,-428,14748,-135,273,124
42125492,-2992,-496,15360,-33,181,164
42128876,-2436,-500,14712,-38,217,246
42132259,-2724,-372,14888,-111,231,127
42135752,-2524,-380,14804,9,216,306
42138939,-2832,-416,15012,-91,213,98
42142235,-2852,-420,15104,72,121,279
42145570,-2612,-388,14724,-80,366,85
42148828,-2808,-356,14948,13,147,257
42152125,-2464,-564,14860,-118,352,86
42155508,-2840,-488,15032,23,118,308
42158804,-2572,-424,14812,-86,324,86
42162149,-2856,-508,15060,-55,166,242
42165484,-2716,-364,14896,-91,291,137
42168867,-2716,-492,15036,-28,158,184
42172251,-2788,-372,14948,-30,196,170
42175634,-2672,-488,14836,-16,284,144
42179017,-2716,-448,15116,0,160,230
42182227,-2648,-436,14888,10,322,185
42185527,-2636,-416,14972,-54,136,217
42188931,-2900,-476,14952,-70,308,206
42192290,-2652,-488,14924,-115,250,167
42195760,-2812,-400,15108,-7,214,188
42199056,-2680,-420,14916,-81,331,192
42202440,-2844,-392,15036,-97,255,132
42205823,-2772,-540,15024,57,184,327
42209119,-2476,-436,14656,-140,267,62
42212527,-2968,-352,15040,128,206,331
42215886,-2240,-576,14640,-79,277,32
42219182,-2984,-360,15140,2,235,215
42222392,-2564,-412,14784,-65,190,222
42225775,-2848,-272,14968,-25,217,200
42229159,-2432,-532,14812,-89,312,137
42232542,-2848,-464,15004,-102,243,99
42235948,-2736,-524,15196,14,183,332
42239222,-2588,-464,14884,-97,220,134
42242605,-2964,-524,15328,45,265,216
42245937,-2520,-340,14832,-113,267,114
42249371,-2976,-468,15248,-46,238,179
42252755,-2536,-476,14916,7,170,289
42255964,-2680,-436,14720,-121,283,71
42259348,-2816,-484,15052,81,126,368
42262693,-2492,-436,14488,-129,284,85
42266027,-3068,-360,15256,4,155,316
42269237,-2380,-444,14808,-111,231,77
42272620,-2960,-472,15296,20,219,247
42275917,-2420,-532,15036,4,331,133
42279127,-2876,-560,15132,45,222,158
42282423,-2572,-488,14820,-26,231,233
42285831,-2676,-376,14840,-111,234,125
42289276,-2912,-412,14912,-43,219,259
42292660,-2524,-584,14900,-72,182,135
42296043,-2928,-404,15004,2,163,255
42299253,-2608,-496,14812,-136,274,98
42302636,-2840,-352,15192,14,217,198
42305932,-2576,-544,14964,-40,336,146
42309316,-2872,-388,15188,58,111,300
42312637,-2576,-456,14800,14,304,176
42315909,-2792,-368,14916,1,147,207
42319092,0,0,0,-96,335,101
42321547,-2936,-364,15088,-124,237,102
42325017,-2332,-604,14720,-72,234,222
42328401,-2880,-392,14972,-160,234,63
42331784,-2708,-448,15016,4,149,266
42334994,-2904,-388,15016,-96,291,153
42338400,-2472,-508,14908,11,230,181
42341673,-2948,-388,15068,-20,216,265
42345057,-2596,-432,14908,-67,268,95
42348388,-2844,-440,14992,14,277,220
42351650,-2612,-448,14788,-23,199,167
42355033,-2616,-412,15080,-92,264,131
42358416,-2788,-536,15220,-57,178,240
42361848,-2580,-416,14836,-84,174,195
42365183,-2748,-472,15112,-77,271,166
42368566,-2656,-452,14968,-47,173,216
42371949,-2816,-444,15116,23,279,196
42375246,-2524,-440,14804,42,142,227
42378542,-2816,-496,15116,83,283,244
42381839,-2360,-476,14672,-125,352,-7
42385225,-2708,-484,14884,-30,171,233
42388630,-2916,-356,14820,-90,280,201
42391988,-2704,-492,15040,-66,180,170
42395372,-2788,-384,14968,-33,274,240
42398755,-2644,-424,14696,-118,213,135
42402225,-2724,-408,14924,4,248,221
42405435,-2720,-408,14836,-31,213,176
42408818,-2552,-416,14892,-1,218,179
42412139,-2788,-440,15056,63,205,265
42415411,-2316,-500,14796,-2,216,178
42418707,-2888,-324,14896,-46,266,190
42422091,-2584,-468,14776,-101,182,145
42425561,-2812,-416,15152,-40,173,239
42428944,-2532,-432,14900,-45,148,227
42432327,-2516,-416,14892,-126,329,65
42435734,-3024,-380,15320,24,159,321
42439007,-2444,-428,14700,-25,281,97
42442303,-2832,-516,15268,-23,249,206
42445687,-2520,-436,14640,-34,232,95
42449018,-3260,-352,15192,45,207,299
42452280,-2300,-588,14720,-5,162,188
42455576,-2824,-340,14972,-115,273,170
42459046,-2788,-516,15168,36,143,284
42462391,-2380,-404,14724,-143,280,104
42465813,-3072,-352,15236,37,165,315
42469109,-2180,-544,14576,-5,219,173
42472406,-2840,-496,15136,-141,372,34
42475789,-2628,-412,14808,6,94,372
42478912,-2276,-564,14844,-123,470,-123
42482469,-3436,-300,15520,126,25,491
42485790,-2116,-556,14544,-123,349,-8
42489148,-3120,-336,15352,-99,211,273
42492532,-2412,-512,14748,-75,213,116
42495915,-3092,-320,15040,-97,321,179
42499298,-2480,-564,14724,9,89,279
42502421,-2804,-400,14872,-46,287,182
42505804,-2600,-668,15128,35,163,219
42509101,-2760,-404,14772,-69,310,108
42512509,-2908,-420,15184,71,154,333
42515781,-2376,-544,14728,2,334,71
42518904,-3012,-268,15100,-67,196,254
42522287,-2520,-484,14720,-83,275,72
42525583,-2892,-252,15124,-25,160,335
42528967,-2528,-492,14668,-108,226,110
42532437,-2916,-488,15152,41,229,222
42535756,-2372,-504,14660,-92,191,186
42539116,-2804,-352,15144,-56,312,126
42542500,-2656,-456,14940,10,228,265
42545796,-2704,-352,14924,-42,245,108
42549214,-2616,-476,14932,-33,235,220
42552563,-2708,-216,14792,-91,193,134
42555946,-2612,-472,14940,-53,343,167
42559329,-2764,-468,15124,-13,124,272
42562773,-2428,-532,14764,-138,309,93
42566096,-2988,-492,15436,-48,146,217
42569479,-2468,-496,14568,-63,203,181
42572862,-2856,-516,15124,-68,296,132
42576245,-2612,-484,14944,37,181,165
42579542,-2716,-424,14860,-77,368,67
42582838,-2804,-512,15060,11,148,211
42586159,-2528,-332,14836,-10,278,245
42589518,-2664,-328,14932,-146,226,131
42592988,-2740,-460,15040,30,214,256
42596285,-2480,-448,14732,-148,288,136
42599755,-2816,-464,14952,-33,135,249
42603138,-2552,-456,14880,-97,331,101
42606521,-2720,-488,14988,15,128,264
42609818,-2632,-456,15004,45,307,199
42613139,-2688,-400,14728,52,118,261
42616411,-2820,-444,15196,-44,290,111
42619794,-2492,-364,14648,-75,194,224
42623177,-2564,-428,14948,-121,289,81
42626560,-2672,-416,15060,-14,182,309
42629944,-2592,-356,14812,-56,212,148
42633327,-2776,-456,15128,-12,266,214
42636733,-2596,-468,14956,-93,198,136
42640093,-2672,-484,15060,-31,180,216
42643477,-2724,-476,15156,32,228,238
42646773,-2664,-520,14964,3,222,155
42650018,-2692,-324,14844,0,227,260
42653193,-2708,-416,14888,-28,201,141
42656576,-2564,-436,14644,-103,323,170
42660046,-2912,-444,15144,-70,175,233
42663477,-2520,-472,14720,-5,253,211
42666726,-2764,-500,15192,-141,244,127
42670196,-2772,-480,15072,60,121,275
42673492,-2696,-452,15140,-184,366,12
42676875,-2860,-368,15256,98,83,344
42680085,-2404,-476,14800,-37,409,64
42683382,-2840,-424,14940,77,80,312
42686616,-2368,-452,14580,-62,402,59
42689888,-3000,-404,15124,-124,167,146
42693358,-2360,-480,14740,-24,283,190
42696741,-3024,-320,15104,-150,172,150
42700211,-2404,-536,14984,-61,172,195
42703594,-2748,-352,14996,-89,268,145
42706978,-2692,-596,14980,-23,170,190
42710364,-2696,-480,14944,44,269,226
42713682,-2744,-348,15032,-3,154,169
42716954,-2668,-388,14924,68,231,244
42720250,-2504,-488,14832,-173,287,51
42723634,-2984,-240,15076,34,210,265
42726930,-2560,-520,14784,-150,334,126
42730400,-2912,-472,15252,-7,186,198
42733697,-2432,-508,14688,-108,232,177
42737190,-2972,-268,15188,-90,132,158
42740550,-2580,-492,14904,46,278,242
42743846,-2800,-392,14968,-53,236,159
42747230,-2716,-460,15088,97,187,262
42750561,-2404,-508,14720,-76,298,64
42753823,-2888,-352,14924,-50,176,191
42757206,-2760,-420,14724,6,222,300
42760419,-2576,-556,14804,-102,180,158
42763934,-2876,-392,15120,18,185,320
42767182,-2380,-508,14852,-154,238,73
42770565,-2996,-328,15280,-20,262,204
42773949,-2360,-500,14760,-66,310,112
42777332,-2864,-556,15184,-4,268,135
42780628,-2672,-452,14884,78,168,307
42783925,-2460,-460,14772,-110,300,1
42787246,-2936,-252,15064,21,231,272
42790518,-2156,-520,14660,-111,193,111
42793988,-3124,-436,15164,34,97,387
42797198,-2216,-488,14524,-70,225,123
42800581,-3016,-556,15376,-80,313,129
42803964,-2308,-404,14556,-43,208,245
42807347,-2908,-580,15096,-111,317,2
42810672,-2636,-484,14924,53,166,319
42813940,-2804,-472,15008,-61,238,91
42817237,-2696,-504,15028,72,242,285
42820533,-2684,-492,14768,-112,245,79
42823917,-2648,-424,15068,-37,288,137
42827300,-2824,-448,15184,-39,115,313
42830683,-2484,-468,14832,-104,259,103
42834153,-2928,-464,15112,-57,241,208
42837560,-2492,-352,14688,-104,198,175
42841006,-3008,-420,15324,55,257,272
42844303,-2512,-464,14724,84,58,334
42847513,-2492,-444,14688,-56,414,36
42850844,-3124,-352,15236,106,106,381
42854192,-2272,-456,14396,-61,279,89
42857489,-2924,-400,15136,-160,276,121
42861007,-2492,-388,14732,-147,206,160
42864429,-2944,-332,15020,-72,320,137
42867812,-2408,-524,14856,7,142,207
42871022,-2792,-432,14884,-68,312,144
42874405,-2744,-476,15008,-16,100,263
42877788,-2640,-432,14868,-112,288,73
42881172,-2900,-380,14908,-5,160,293
42884468,-2460,-584,14980,-48,329,32
42887789,-2644,-444,14708,101,134,454
42891148,-2360,-492,14568,-226,415,-162
42894705,-3444,-468,15496,143,90,453
42898001,-2128,-504,14392,-200,305,-10
42901471,-3156,-392,15412,-85,236,245
42904854,-2356,-516,14716,-103,270,136
42908324,-2860,-404,15020,-48,186,185
42911732,-2464,-584,14844,37,298,170
42915004,-2820,-448,15092,-40,213,118
42918387,-2832,-476,14996,104,215,321
42921771,-2632,-448,14672,-136,324,41
42925154,-2928,-436,15224,40,194,297
42928450,-2388,-476,14688,-124,297,149
42931920,-3104,-452,15228,-160,224,114
42935394,-2520,-552,14860,-21,113,380
42938797,-3160,-324,15236,-134,298,-16
42942244,-2464,-528,14756,102,175,381
42945627,-2864,-596,15136,-138,268,70
42949010,-2948,-460,15020,210,88,403
42952342,-2136,-480,14524,-133,354,7
42955603,-2864,-568,15208,104,87,305
42958900,-2400,-380,14500,-161,378,68
42962332,-3120,-388,15380,-34,186,187
42965666,-2308,-556,14700,-83,244,178
42969049,-2988,-448,15168,-169,267,41
42972433,-2652,-484,15092,74,127,326
42975729,-2656,-456,14992,-160,369,9
42979026,-2992,-404,15204,77,179,260
42982322,-2452,-484,14768,-10,342,138
42985730,-2904,-384,15128,21,117,224
42989002,-2288,-536,14632,-19,306,167
42992385,-3056,-272,15104,-113,184,216
42995855,-2400,-624,14920,93,162,339
42999152,-2532,-360,14768,-190,329,17
43002535,-2648,-528,14932,47,98,302
43005745,-2480,-412,14800,-157,331,33
43009128,-2964,-464,15236,-46,163,229
43012536,-2612,-484,14912,12,323,138
43015808,-2644,-344,14908,-9,145,244
43019104,-2656,-368,14868,79,312,176
43022401,-2664,-408,14912,-114,238,131
43025871,-2748,-372,14940,-118,310,74
43029254,-3028,-464,15164,30,119,391
43032550,-2532,-456,14700,-115,273,105
43036044,-3028,-464,15124,-144,259,142
43039490,-2624,-580,14876,-32,171,181
43042874,-2772,-388,15164,-45,319,145
43046257,-2784,-368,15076,-35,201,187
43049640,-2776,-352,14932,7,261,161
43052885,-2564,-512,15040,-94,257,93
43056146,-3072,-296,15100,74,74,349
43059356,-2368,-444,14552,-177,384,77
43062842,-3136,-440,15432,36,156,230
43066036,-2280,-532,14704,13,203,280
43069332,-3000,-360,15296,-131,183,170
43072802,-2548,-532,14952,38,228,284
43076099,-2836,-424,15088,-67,164,217
43079482,-2400,-512,14792,-13,267,172
43082865,-2892,-380,14920,-164,341,14
43086273,-3052,-432,15256,155,5,466
43089458,-2620,-496,14732,-200,515,-144
43093015,-3000,-504,15208,87,46,402
43096225,-2336,-552,14720,-108,405,29
43099608,-2912,-476,15136,-45,56,306
43102905,-2336,-524,14772,-72,366,86
43106201,-3020,-428,15088,-85,118,234
43109584,-2504,-504,14908,13,233,206
43112905,-2868,-484,15072,-77,277,125
43116264,-2560,-516,14940,34,132,261
43119561,-2708,-384,14880,-107,401,76
43122944,-2820,-612,15140,-15,137,255
43126327,-2700,-400,14868,-115,364,89
43129710,-3052,-400,15312,-13,72,323
43133007,-2260,-536,14540,-144,350,61
43136413,-3024,-328,15296,-28,123,299
43139773,-2288,-476,14612,-65,260,119
43143157,-2936,-400,15260,1,221,303
43146366,-2408,-468,14868,-51,190,136
43149750,-2936,-276,14944,-28,297,163
43153172,-2584,-408,14672,42,181,188
43156429,-2620,-524,15040,-120,369,38
43159813,-2848,-504,15216,-26,116,299
43163244,-2544,-540,14712,-97,272,101
43166579,-2980,-444,15196,-146,199,189
43170049,-2668,-524,14872,-34,167,197
43173432,-2644,-440,14892,-78,302,184
43176816,-2684,-504,15064,12,156,162
43180112,-2504,-584,14924,-5,281,211
43183409,-2816,-280,15080,-8,184,223
43186730,-2632,-468,14964,26,277,168
43190002,-2692,-428,14820,-105,252,159
43193472,-2904,-360,14920,-94,320,55
43196768,-2804,-516,15072,27,106,379
43200065,-2616,-416,14844,-100,238,87
43203448,-2796,-480,15124,-74,288,165
43206831,-2708,-516,14952,-76,177,161
43210218,-2612,-476,15008,28,284,192
43213535,-2696,-456,14924,-78,198,134
43216894,-2820,-440,14996,59,170,277
43220191,-2568,-460,14716,-24,289,158
43223574,-2692,-508,14844,-74,255,101
43226957,-2768,-396,15048,-12,254,247
43230340,-2576,-480,14984,-115,177,171
43233810,-2764,-516,15096,-35,220,210
43237217,-2696,-488,14960,-126,228,149
43240664,-2828,-508,15032,41,167,270
43243960,-2524,-544,14892,-69,342,110
43247343,-2748,-408,14932,-1,201,181
43250640,-2840,-400,14916,15,232,247
43253971,-2704,-372,14796,-63,213,137
43257320,-2612,-504,14744,-66,296,161
43260751,-2840,-280,14956,-111,219,227
43264173,-2656,-436,14880,-35,219,139
43267556,-2812,-452,15016,-50,195,272
43270939,-2584,-404,14868,-73,232,111
43274323,-2824,-488,15064,-20,242,251
43277706,-2572,-512,14924,-40,210,138
43281089,-2732,-496,14952,-41,322,130
43284472,-2744,-428,15028,8,141,266
43287711,-2592,-544,14708,-30,267,72
43290979,-2716,-444,15120,-39,197,257
43294362,-2524,-412,14708,-38,245,171
43297745,-2880,-320,15168,21,193,332
43301042,-2308,-572,14780,-54,181,124
43304425,-2788,-452,14976,-118,307,160
43307895,-2676,-560,15032,-63,208,202
43311303,-2608,-496,14952,-26,291,164
43314661,-2936,-396,14952,-16,220,225
43318045,-2528,-512,15028,-49,244,112
43321428,-2856,-536,15216,-12,228,219
43324811,-2384,-320,14640,-104,240,97
43328194,-3000,-476,15136,-17,258,234
43331578,-2424,-516,14800,-97,233,92
43334874,-3048,-412,15192,-81,287,99
43338194,-2596,-440,14948,-26,123,292
43341554,-2612,-416,14904,-80,225,138
43344937,-2572,-496,15012,-6,251,200
43348234,-2624,-404,14804,-21,213,141
43351617,-2956,-516,15428,195,151,371
43355035,-2128,-408,14256,-107,202,113
43358470,-3012,-492,15168,-97,277,101
43361902,-2696,-392,14796,156,-11,510
43365237,-2136,-568,14644,-265,415,-86
43368707,-2944,-536,15280,56,75,461
43371916,-2096,-568,14540,-122,294,17
43375300,-3376,-416,15512,-53,285,198
43378683,-2372,-424,14652,-7,241,118
43381979,-2984,-324,15224,20,288,176
43385279,-2440,-520,14776,29,107,294
43388597,-2920,-356,15072,-123,309,51
43391956,-2644,-520,15116,-32,179,288
43395339,-2692,-376,14948,-86,205,126
43398722,-2604,-456,14748,-13,248,262
43402105,-2748,-416,14972,-94,218,99
43405402,-2784,-320,15032,-7,230,218
43408698,-2768,-420,15024,-82,224,104
43412106,-2824,-384,15192,89,183,277
43415378,-2316,-664,14844,-58,374,60
43418675,-2876,-412,15172,74,108,335
43421971,-2604,-304,14796,-72,352,12
43425268,-2868,-404,15276,70,93,298
43428477,-2536,-292,14612,-123,288,164
43431947,-3200,-252,15368,-156,268,36
43435334,-2576,-468,14916,16,169,266
43438650,-2796,-552,15192,-215,312,-12
43442097,-2924,-436,15180,137,83,426
43445394,-2256,-504,14564,-132,409,-36
43448864,-2928,-456,15396,92,83,371
43452073,-2304,-440,14480,-143,377,42
43455492,-3156,-436,15244,65,73,354
43458666,-2108,-504,14368,-137,450,-30
43462185,-3420,-360,15336,76,-30,459
43465433,-2272,-480,14512,-91,354,54
43468729,-3084,-332,15368,-103,157,229
43472199,-2440,-492,14848,-59,204,144
43475583,-2992,-308,15244,-170,317,83
43478966,-2780,-492,15052,128,83,370
43482262,-2388,-568,14784,-48,406,86
43485562,-2724,-428,14924,70,103,264
43488880,-2424,-560,14792,-48,363,120
43492239,-2968,-392,15156,-61,148,256
43495622,-2416,-492,14572,-24,267,157
43499005,-2920,-504,15160,-93,171,239
43502388,-2292,-544,14676,-120,274,29
43505772,-3008,-340,15108,-143,325,143
43509242,-2656,-540,15180,40,121,247
43512563,-3000,-328,14980,-65,341,122
43515921,-2764,-452,15040,130,70,346
43519218,-2464,-504,14724,-30,312,77
43522514,-2576,-460,14856,-52,143,273
43525898,-2632,-464,14904,-148,336,-22
43529368,-2808,-456,15096,37,152,421
43532664,-2244,-480,14812,-163,295,2
43535984,-3060,-448,15268,18,199,258
43539257,-2532,-432,14828,-149,248,73
43542640,-2940,-404,15276,42,215,275
43545937,-2496,-544,14644,-80,255,118
43549320,-2992,-404,15260,67,177,221
43552617,-2328,-584,14744,-18,281,181
43556035,-2948,-440,15140,-18,122,226
43559383,-2556,-272,14644,11,278,239
43562740,-2720,-380,14972,-218,315,4
43565976,-3008,-500,15376,130,39,445
43569273,-2324,-444,14568,-257,364,-66
43572743,-3284,-416,15604,37,147,281
43576039,-2280,-552,14624,-105,358,72
43579422,-3200,-416,15308,35,207,176
43582719,-2312,-620,14800,112,191,304
43586127,-2744,-388,14756,-151,270,73
43589485,-2860,-532,15176,129,201,325
43592869,-2260,-572,14600,-293,390,-65
43596339,-3284,-412,15424,89,127,309
43599635,-2052,-676,14724,-101,229,197
43603105,-3308,-300,15388,-68,91,255
43606402,-2236,-556,14604,37,248,274
43609698,-2776,-268,14856,-193,244,54
43613106,-2584,-616,15072,88,244,285
43616378,-2692,-452,14824,-29,181,165
43619761,-2692,-436,15096,26,265,214
43623058,-2708,-360,14768,-70,266,144
43626441,-2668,-404,14924,-67,229,195
43629824,-2712,-484,14872,-93,327,139
43633207,-2848,-500,15080,-74,182,168
43636614,-2648,-480,14960,-35,220,237
43639974,-2552,-376,14804,-132,201,122
43643444,-2840,-532,15000,12,207,246
43646740,-2616,-460,14852,-38,259,98
43650037,-2912,-508,15172,86,135,287
43653333,-2532,-508,14716,-40,278,173
43656752,-2816,-496,14908,-39,137,229
43660103,-2592,-484,14760,-93,365,63
43663445,-3132,-472,15176,-101,205,111
43666866,-2648,-496,15012,59,194,254
43670163,-2836,-304,14932,-145,281,120
43673633,-2712,-452,15024,60,157,294
43676929,-2664,-444,14884,-156,356,98
43680313,-3048,-476,15160,57,133,265
43683609,-2136,-520,14584,-21,286,187
43687017,-3288,-392,15616,9,125,250
43690202,-2156,-504,14304,131,188,303
43693585,-2820,-300,15076,-290,383,-130
43697142,-2524,-500,14816,65,64,393
43700352,-2468,-372,14856,-257,393,-44
43703822,-3096,-456,15296,113,30,416
43707118,-2312,-360,14536,-206,422,34
43710505,-3144,-436,15324,-29,144,256
43713909,-2380,-448,14580,-16,310,160
43717268,-2940,-540,15376,-35,210,141
43720651,-2632,-392,14712,18,162,214
43723948,-2904,-424,14992,-133,400,-9
43727331,-2672,-344,14840,94,34,389
43730541,-2476,-452,14804,-244,449,-105
43734098,-2656,-476,15096,60,17,416
43737331,-2480,-336,14720,-122,356,109
43740777,-2796,-588,15128,-50,153,198
43744161,-2580,-520,14944,-11,266,166
43747544,-2824,-408,15000,-18,219,206
43750927,-2780,-388,14916,56,191,242
43754224,-2564,-512,14756,-96,289,147
43757642,-2820,-400,15056,20,127,214
43760952,-2476,-396,14560,-82,316,149
43764287,-2956,-384,15168,-105,199,172
43767757,-2496,-424,14964,-4,235,200
43771053,-2716,-432,14836,-187,269,75
43774436,-2920,-416,15248,72,175,306
43777733,-2596,-420,14864,-111,337,36
43781116,-2840,-568,15136,54,128,307
43784413,-2364,-556,14668,-83,294,123
43787820,-3004,-420,15116,31,137,231
43791092,-2604,-400,14784,1,246,255
43794302,-2524,-488,14772,-150,291,75
43797685,-3092,-496,15284,64,175,273
43800982,-2396,-492,14644,-47,157,234
43804365,-2768,-348,15096,-144,288,44
43807748,-2636,-540,15012,59,214,314
43811069,-2536,-400,14988,-127,249,95
43814428,-2940,-400,15064,107,225,310
43817811,-2420,-476,14824,-45,212,110
43821195,-2856,-468,14952,-26,249,196
43824578,-2556,-512,14824,-68,277,149
43827961,-2620,-420,15012,-53,179,214
43831344,-2652,-336,14796,-141,279,179
43834814,-2776,-504,15204,-1,184,176
43838134,-2564,-504,14804,-78,250,200
43841494,-2824,-420,15000,-63,190,161
43844877,-2532,-356,14892,54,193,305
43848174,-2656,-416,14812,-116,256,70
43851557,-2860,-444,15148,181,102,370
43854940,-2300,-428,14588,-89,320,79
43858272,-2948,-368,15140,-19,131,232
43861669,-2464,-428,14596,-135,410,65
43865003,-3072,-420,15428,-80,186,167
43868387,-2580,-444,14904,-25,239,215
43871770,-2828,-440,15024,-171,286,31
43875153,-2740,-512,15080,79,81,376
43878363,-2460,-404,14876,-158,393,44
43881746,-2932,-364,15048,0,181,215
43884956,-2452,-532,14924,72,260,254
43888277,-2840,-300,14884,-15,182,179
43891636,-2472,-480,14800,-12,294,162
43895019,-2840,-412,15012,-155,262,85
43898402,-2784,-384,14928,-28,145,257
43901785,-2764,-304,15036,-197,334,87
43905169,-2856,-472,15044,19,75,320
43908378,-2404,-548,14848,-146,365,67
43911786,-2916,-472,15348,77,85,309
43914971,-2452,-560,14680,-18,354,182
43918355,-2928,-376,15076,3,156,247
43921564,-2628,-412,14812,19,294,139
43924861,-2824,-524,15116,-141,216,164
43928331,-2764,-460,14912,4,142,219
43931541,-2268,-472,14644,-190,332,51
43934924,-3068,-404,15444,-35,210,204
43938330,-2168,-612,14648,-88,374,101
43941690,-2936,-360,15280,-116,200,116
43945160,-2700,-372,14956,28,161,325
43948457,-2584,-384,14772,-88,266,80
43951753,-2764,-656,15272,63,232,232
43955050,-2560,-400,14532,-36,283,131
43958468,-2644,-584,14816,-15,244,108
43961866,-2808,-380,15080,-34,165,280
43965200,-2440,-396,14752,-155,277,78
43968583,-2836,-468,15100,-20,218,290
43971966,-2680,-476,14704,-23,135,215
43975349,-2520,-472,15092,-67,300,140
43978733,-2904,-492,15048,-4,152,241
43982029,-2368,-484,14796,-83,262,70
43985329,-2880,-520,15216,10,263,211
43988647,-2556,-564,14880,-65,211,174
43992005,-2876,-416,15004,-38,349,158
43995389,-2520,-432,14720,-48,116,252
43998772,-2948,-388,15108,-67,346,148
44002155,-2504,-504,15096,-30,151,217
44005538,-2828,-436,14884,-77,256,186
44008922,-2612,-536,15032,-128,313,123
44012416,-2748,-472,15292,-35,155,247
44015775,-2736,-464,14952,-33,267,202
44019158,-2668,-568,15040,17,179,155
44022455,-2852,-320,15032,40,238,268
44025751,-2340,-492,14820,-52,259,45
44029048,-2860,-292,14880,-82,239,196
44032431,-2804,-476,14924,32,104,339
44035751,-2472,-536,14844,-71,274,123
44039111,-2892,-292,14956,-83,254,229
44042494,-2592,-516,14900,-80,213,107
44045877,-3040,-380,15140,11,184,333
44049174,-2444,-452,14836,-47,261,98
44052470,-2876,-464,15184,15,193,255
44055767,-2576,-300,14688,4,151,251
44059011,-2456,-400,14772,-103,293,61
44062462,-2788,-432,14948,-79,252,197
44065743,-2684,-432,14872,-43,214,149
44069126,-2832,-416,15064,-21,303,201
44072509,-2524,-412,14804,-88,154,195
44075893,-2820,-408,15128,1,183,235
44079102,-2468,-404,14896,-57,218,139
44082486,-2768,-392,15028,-28,191,191
44085893,-2660,-444,15160,42,327,205
44089165,-2704,-360,14780,-4,178,187
44092462,-2616,-388,14692,21,283,185
44095758,-2800,-508,14992,-85,217,114
44099142,-2692,-404,14992,22,227,281
44102438,-2496,-576,14900,-89,211,115
44105821,-2848,-504,15144,14,157,238
44109118,-2324,-580,14884,-155,263,127
44112612,-2992,-412,15184,-75,259,117
44115971,-2484,-412,14924,33,264,222
44119268,-2588,-312,14824,-68,235,165
44122651,-2804,-624,15096,118,240,213
44126034,-2672,-424,14912,-82,206,144
44129417,-2684,-424,14912,71,189,249
44132714,-2568,-280,14836,-191,311,99
44136120,-2716,-508,15004,19,118,280
44139394,-2504,-444,14684,-176,316,113
44142864,-2816,-380,15104,-36,110,274
44146247,-2604,-484,14888,4,279,186
44149457,-2864,-420,14896,-34,201,161
44152840,-2660,-516,14900,64,241,214
44156136,-2700,-512,14896,-57,248,162
44159558,-2652,-472,14844,-23,180,122
44162951,-2604,-376,14976,-154,323,143
44166373,-2800,-468,15220,-56,208,169
44169756,-2860,-344,14992,-8,214,252
44173053,-2564,-624,15012,-146,244,73
44176436,-2892,-380,15084,20,187,288
44179732,-2456,-456,14860,-64,303,125
44183116,-2768,-412,15036,27,183,240
44186437,-2608,-460,14992,2,287,155
44189622,-2616,-464,14912,-66,198,156
44193005,-2912,-352,14988,24,232,226
44196302,-2416,-536,14884,-86,239,147
44199685,-3016,-348,15076,29,192,283
44202981,-2376,-592,14804,-44,135,232
44206365,-2736,-480,14856,-89,281,133
44209748,-2704,-528,14876,-65,265,140
44213156,-2820,-516,15008,-101,219,104
44216601,-2728,-396,14972,80,200,297
44219898,-2584,-472,14900,17,205,188
44223194,-2712,-492,14996,-44,276,159
44226577,-2676,-448,14976,-14,203,218
44229961,-2488,-468,14760,-173,288,30
44233344,-2952,-376,15240,-72,258,212
44236750,-2332,-468,14804,-42,125,200
44240110,-2884,-504,15164,-85,345,82
44243407,-2600,-416,14872,-77,178,221
44246790,-2808,-456,14872,-19,267,108
44250173,-2632,-512,15012,-53,214,203
44253557,-2840,-360,14976,-12,163,199
44256940,-2784,-480,14716,-15,317,184
44260358,-2300,-576,14832,-65,256,77
44263668,-2660,-324,14812,-43,287,197
44267003,-2744,-484,15276,-111,175,164
44270473,-2696,-332,15076,-18,223,218
44273856,-2624,-404,14920,-94,217,170
44277239,-2668,-456,15040,-35,256,187
44280623,-2648,-524,14980,-35,230,207
44284006,-2648,-464,14980,-37,253,136
44287414,-2728,-440,15044,23,283,206
44290686,-2740,-492,14996,-29,207,139
44294069,-2700,-384,14888,-15,294,186
44297452,-2652,-520,14816,-120,292,133
44300922,-2616,-452,14940,-5,152,222
44304219,-2748,-484,15104,-114,251,222
44307689,-2756,-452,14748,-62,192,144
44311096,-2684,-420,15028,-35,285,204
44314455,-2692,-536,14932,-38,204,162
44317838,-2840,-444,15032,39,315,167
44321135,-2460,-464,14848,-26,164,221
44324518,-3304,-280,15196,13,149,256
44327815,-2136,-452,14676,9,208,242
44331024,-2956,-288,14960,-200,370,-45
44334494,-2456,-548,14848,79,177,329
44337814,-2676,-428,14924,-182,268,54
44341174,-3000,-440,15292,100,123,370
44344557,-2316,-500,14732,-91,290,88
44347854,-2996,-436,15160,-46,218,199
44351237,-2592,-472,14964,7,277,211
44354447,-2772,-472,14992,-52,251,107
44357830,-2812,-320,14984,23,247,256
44361193,-2412,-492,14812,-85,228,85
44364397,0,0,0,-89,307,171
44366852,-2692,-408,14952,-53,91,271
44370149,-2692,-520,15136,-61,353,118
44373532,-2780,-424,14980,-70,164,195
44376915,-2568,-556,14888,10,274,193
44380212,-2684,-496,14948,-58,243,166
44383595,-2676,-424,15016,37,237,189
44386916,-2576,-344,14840,18,182,282
44390188,-2800,-476,14968,23,184,191
44393484,-2540,-428,14948,-112,269,159
44396954,-2772,-384,15052,-138,276,100
44400424,-2592,-436,14888,-1,262,236
44403721,-2776,-540,15140,-108,208,103
44407191,-2780,-372,14912,40,152,306
44410491,-2692,-320,14960,-133,242,109
44413982,-2728,-428,15100,24,198,248
44417254,-2612,-472,14740,-113,303,134
44420724,-2832,-504,15068,25,169,229
44424020,-2516,-488,14820,-84,338,129
44427404,-3124,-348,15164,-63,248,60
44430700,-2440,-540,14912,126,169,388
44434083,-2696,-456,14816,-183,286,88
44437491,-2672,-456,15024,7,145,287
44440676,-2600,-540,14916,-205,310,54
44444060,-2896,-480,15216,19,97,290
44447269,-2608,-392,14760,-158,409,41
44450653,-3148,-356,15300,127,18,382
44453949,-2120,-536,14508,-91,435,-58
44457332,-3292,-296,15472,49,156,232
44460680,-2188,-636,14480,107,168,332
44464047,-2708,-408,14880,-218,373,35
44467395,-2724,-380,14916,79,8,443
44470518,-2300,-528,14780,-216,407,-37
44473988,-3188,-396,15312,32,1,353
44477111,-2468,-568,14720,-47,360,85
44480408,-2976,-348,15284,-56,185,161
44483791,-2488,-388,14652,98,211,315
44487112,-2964,-428,15136,-69,250,91
44490384,-2616,-568,14872,50,205,277
44493681,-2656,-380,14800,-82,298,56
44496977,-2704,-344,14904,-12,143,270
44500360,-2708,-400,14912,-131,333,86
44503744,-2908,-416,15200,-16,166,210
44507127,-2268,-636,14792,-58,301,153
44510514,-2880,-404,15112,-80,198,158
44513918,-2584,-476,15012,38,208,248
44517190,-2804,-404,14892,-75,233,130
44520573,-2812,-444,15104,77,221,201
44523870,-2484,-480,14880,-89,325,113
44527253,-2896,-360,15036,-83,206,159
44530636,-2524,-440,14828,-37,317,197
44534019,-2856,-380,14936,-70,133,292
44537427,-2500,-488,14844,-27,280,114
44540786,-2756,-504,15164,-86,212,238
44544169,-2788,-524,15076,-23,238,118
44547552,-2612,-456,14976,-49,246,257
44550936,-2612,-472,15096,-84,221,93
44554232,-2956,-260,14920,100,158,370
44557615,-2320,-516,14768,-30,212,137
44561058,-2936,-320,14936,-28,238,189
44564417,-2504,-504,14724,-95,287,49
44567678,-3056,-412,14952,13,102,337
44570975,-2392,-416,14884,-29,277,224
44574358,-2752,-396,14968,-46,152,197
44577741,-2504,-484,14816,-33,323,160
44581125,-2744,-600,15204,-60,148,191
44584508,-2732,-372,14748,-4,206,284
44587829,-2412,-452,14760,-100,288,58
44591188,-2828,-428,15088,38,250,222
44594484,-2476,-364,14852,-41,241,134
44597867,-2892,-492,15052,-25,218,156
44601251,-2764,-396,14868,-20,187,307
44604634,-2600,-512,14940,-114,181,106
44608104,-2476,-640,14968,-33,207,295
44611512,-2708,-384,14952,-110,227,41
44614870,-2732,-552,15016,46,196,223
44618167,-2708,-472,14996,5,170,251
44621377,-2556,-412,14832,21,311,127
44624673,-2744,-576,15212,-12,286,187
44628056,-2564,-392,14828,23,131,271
44631353,-2432,-368,14712,-186,404,3
44634649,-3104,-472,15300,32,23,362
44637884,-2464,-384,14576,-59,332,84
44641156,-2888,-324,14944,-116,221,146
44644626,-2760,-444,15120,28,154,295
44647922,-2740,-524,15160,-147,350,-8
44651305,-2868,-480,15072,64,83,387
44654515,-2556,-472,14760,-106,393,39
44657898,-2680,-444,15024,84,118,256
44661242,-2760,-424,14944,2,307,189
44664443,-2596,-472,14860,-55,163,161
44667788,-2352,-576,14764,-110,274,175
44671258,-2988,-208,15112,-118,190,178
44674728,-2556,-460,14908,-113,242,112
44678198,-2984,-420,15168,-17,231,235
44681581,-2512,-380,14760,-91,186,155
44684964,-2804,-456,15164,-7,272,176
44688285,-2568,-492,14816,8,167,195
44691471,-2624,-444,15036,20,265,167
44694767,-2716,-540,14944,-71,245,163
44698150,-2964,-368,15060,26,188,233
44701447,-2588,-328,14760,-59,222,253
44704830,-2796,-444,15216,-129,237,54
44708213,-2704,-432,14936,5,221,314
44711448,-2600,-452,14812,-133,201,134
44714893,-2616,-536,15004,5,243,223
44718103,-2620,-432,14924,-75,246,105
44721486,-2804,-488,15104,49,180,209
44724783,-2508,-496,14784,-67,299,154
44728166,-2920,-300,15108,8,196,188
44731376,-2464,-476,14840,-68,330,146
44734759,-3060,-376,15236,-157,197,100
44738253,-2728,-444,14932,33,163,281
44741525,-2780,-436,14932,-188,342,40
44744909,-2776,-512,15156,51,89,273
44748118,-2444,-464,14808,-115,295,153
44751588,-2708,-436,15140,45,142,249
44754885,-2692,-392,14680,-26,327,147
44758268,-2912,-468,15316,18,185,219
44761612,-2492,-556,14696,-24,290,144
44764983,-2736,-484,15028,-133,299,55
44768331,-3016,-400,15144,52,37,359
44771541,-2660,-384,14892,-129,355,85
44774924,-2864,-460,15028,-9,107,289
44778221,-2392,-392,14676,-139,337,57
44781604,-2872,-368,15136,2,192,179
44784814,-2604,-512,14824,25,259,244
44788135,-2660,-480,15016,-50,268,131
44791493,-2684,-420,14828,-32,281,135
44794877,-2904,-404,15220,14,215,200
44798173,-2604,-392,15076,-22,162,244
44801556,-2672,-400,14896,-213,431,14
44804940,-2988,-396,15208,87,61,334
44808149,-2216,-480,14692,-101,389,53
44811557,-2908,-472,15080,-28,83,276
44814829,-2444,-508,14800,-109,366,79
44818212,-3044,-368,15236,1,122,331
44821422,-2296,-524,14640,0,307,98
44824545,-3128,-380,15340,-24,212,227
44827928,-2132,-552,14420,28,238,124
44831225,-2992,-316,14996,-143,326,147
44834695,-2576,-504,14860,90,35,402
44837929,-2472,-464,14632,-182,414,43
44841288,-2824,-504,15264,67,26,380
44844498,-2276,-568,14484,-85,341,78
44847794,-3084,-484,15248,-108,222,161
44851264,-2436,-484,14792,3,167,216
44854474,-2772,-388,15124,-6,289,133
44857770,-2484,-492,14892,-18,223,182
44861201,-2828,-284,14740,62,260,242
44864450,-2440,-392,14752,-140,250,74
44867869,-3084,-376,15152,-48,271,258
44871217,-2484,-380,14744,-132,264,117
44874687,-2860,-416,15244,-31,217,201
44878070,-2424,-608,14884,-109,362,68
44881453,-3032,-476,15364,-23,146,207
44884836,-2420,-592,14804,54,262,314
44888162,-2972,-428,15052,-82,190,145
44891516,-2608,-580,14852,124,240,265
44894899,-2484,-424,14744,-108,306,87
44898283,-2908,-476,15172,-14,197,204
44901666,-2604,-456,15048,-98,326,132
44905049,-2708,-432,15076,-46,138,249
44908432,-2748,-460,14904,-62,289,151
44911840,-2676,-524,15040,-82,214,195
44915199,-2700,-312,14920,-18,235,163
44918582,-2684,-440,15004,-64,213,196
44921965,-2744,-448,15120,14,174,223
44925262,-2716,-408,14896,-7,341,116
44928558,-2752,-500,14964,34,160,222
44931855,-2564,-532,14868,-113,294,141
44935328,-2856,-508,15008,-120,215,129
44938819,-2736,-476,14952,27,149,254
44942091,-2540,-460,14820,-143,298,126
44945561,-2860,-420,15112,49,145,277
44948858,-2492,-452,14852,-110,362,108
44952328,-2908,-364,15008,89,66,300
44955538,-2304,-532,14772,-58,366,72
44958834,-3100,-440,15220,48,89,321
44962092,-2440,-356,14592,-94,357,29
44965340,-2980,-520,15316,-72,160,217
44968759,-2492,-380,14728,-113,248,142
44972194,-2876,-428,15188,-30,251,217
44975577,-2444,-556,14828,-49,228,162
44978960,-2772,-508,15232,-57,265,192
44982343,-2664,-480,14820,-39,155,213
44985751,-2640,-464,14936,-23,250,178
44989110,-2740,-332,14968,-7,223,191
44992406,-2660,-464,15000,-4,269,105
44995703,-2784,-340,15060,14,263,220
44998999,-2452,-364,14768,-58,246,138
45002383,-2848,-364,15184,-109,269,177
45005853,-2556,-380,14964,-41,122,232
45009236,-2704,-500,14916,-94,354,64
45012557,-2556,-448,15044,-54,113,243
45015916,-2928,-452,15236,-21,245,136
45019299,-2608,-560,15124,101,131,364
45022682,-2480,-464,14612,-97,275,67
45025979,-2964,-432,15068,87,206,334
45029275,-2424,-472,14696,-66,181,144
45032658,-2880,-368,14952,-42,250,173
45036066,-2368,-400,14748,-63,105,333
45039425,-2716,-476,14964,-76,400,18
45042721,-2664,-512,14992,-29,156,232
45046105,-2920,-252,14904,-95,286,107
45049488,-2704,-596,15032,38,255,234
45052784,-2616,-372,14844,-55,130,204
45056168,-2656,-500,14992,-34,398,93
45059464,-2708,-456,14860,-13,172,217
45062949,-2788,-412,15020,-34,313,99
45066144,-2824,-340,14976,-2,142,282
45069479,-2500,-484,14600,-137,247,65
45072824,-3064,-372,15260,-61,250,222
45076207,-2476,-484,14712,-20,113,259
45079590,-2668,-444,15056,-42,317,149
45082973,-2544,-600,14960,13,161,214
45086294,-2724,-436,14968,-17,295,164
45089653,-2920,-332,15052,-41,228,154
45093036,-2632,-532,14792,54,207,236
45096333,-2664,-344,14784,-147,325,18
45099690,0,0,0,62,77,292
45101972,-2664,-372,14660,-154,250,161
45105442,-2716,-536,15220,12,189,141
45108738,-2416,-400,14816,-34,206,306
45112146,-2672,-444,14840,-152,270,2
45115418,-3048,-516,15132,75,141,355
45118714,-2336,-480,14768,-116,268,56
45122098,-3228,-328,15224,167,198,311
45125481,-2224,-808,14764,-30,375,45
45128777,-2792,-516,15032,-86,169,213
45132161,-2596,-332,14828,-124,304,95
45135568,-2844,-536,14960,-85,107,268
45138927,-2476,-668,15084,-83,334,160
45142310,-2792,-348,14896,-67,143,253
45145694,-2716,-452,15028,-38,302,95
45148990,-2796,-368,14920,13,139,277
45152287,-2492,-552,14860,-98,270,76
45155583,-2928,-388,15248,51,231,271
45158880,-2396,-560,14872,61,193,142
45162223,-2736,-336,14888,-39,295,152
45165533,0,0,0,31,103,290
45167875,0,0,0,-127,331,100
45170452,-3000,-404,15192,-79,191,161
45173801,-2500,-480,14792,-30,242,231
45177184,-2804,-452,14952,-119,167,154
45180654,-2548,-532,14968,-24,233,238
45184037,-2780,-268,15104,-101,238,117
45187532,-2556,-460,14920,29,147,299
45190804,-2644,-380,14800,-58,337,67
45194100,-2776,-456,15132,74,184,237
45197397,-2732,-344,14912,-77,324,125
45200780,-2520,-464,15008,-56,207,140
45204163,-2776,-408,14940,-5,181,271
45207460,-2636,-488,14904,-158,287,33
45210867,-2868,-456,15024,3,113,338
45214053,-2468,-488,14792,-99,253,111
45217436,-2692,-344,15044,-15,116,271
45220819,-2644,-444,14856,-44,323,153
45224202,-2848,-408,15000,25,126,220
45227499,-2564,-456,14888,-13,346,183
45230882,-2776,-400,15068,-36,168,162
45234265,-2672,-456,14936,-40,207,172
45237673,-2692,-320,14876,-92,213,226
45241032,-2612,-600,15044,-55,245,141
45244415,-2860,-384,15172,-111,238,226
45247885,-2716,-420,14880,15,169,204
45251182,-2628,-460,14860,-44,336,106
45254565,-2640,-524,15152,31,119,294
45257861,-2596,-480,14888,8,314,150
45261118,-2736,-404,14968,43,182,244
45264368,-2532,-352,14824,-71,247,134
45267751,-2788,-400,14880,-133,298,95
45271169,-2804,-392,15016,-28,171,223
45274517,-2780,-468,14776,-69,259,229
45277901,-2612,-424,14788,-77,208,98
45281197,-2752,-412,14948,29,204,256
45284494,-2556,-496,14804,-60,213,133
45287901,-2764,-400,14972,-22,251,207
45291260,-2668,-492,14932,2,198,256
45294470,-2624,-420,14944,-19,314,65
45297766,-2828,-504,15116,-3,181,286
45301063,-2472,-504,14676,-209,308,-2
45304446,-2900,-388,15084,11,186,335
45307743,-2484,-404,14676,-113,190,154
45311237,-2852,-456,15200,-32,244,197
45314596,-2528,-424,14688,-7,124,252
45317892,-2756,-444,15172,-36,230,210
45321276,-2356,-520,14992,-4,226,222
45324572,-2876,-280,14952,-41,269,74
45327869,-2888,-444,14996,130,186,346
45331252,-2492,-468,14704,-122,255,60
45334635,-2976,-472,15228,-57,312,178
45338043,-2456,-564,14828,-189,242,124
45341488,-2892,-276,15036,-8,132,263
45344785,-2348,-532,14844,-47,341,110
45348168,-2844,-468,14936,-99,176,162
45351551,-2740,-388,14924,50,290,223
45354848,-2764,-416,14824,-35,234,170
45358231,-2680,-472,14864,26,209,204
45361575,-2728,-364,14912,-48,224,170
45364911,-2536,-440,14784,-71,256,52
45368207,-2928,-456,15336,-20,246,265
45371625,-2532,-456,14764,19,135,269
45374887,-2688,-500,14892,-78,279,150
45378270,-2652,-520,14928,-40,167,204
45381654,-2572,-436,14784,-46,279,211
45385040,-2896,-480,15104,-32,177,233
45388445,-2420,-464,14644,-29,245,147
45391803,-2864,-412,15128,27,312,194
45395100,-2292,-508,14792,80,119,255
45398396,-2800,-396,15012,-63,422,44
45401693,-2672,-476,15008,-63,235,138
45405076,-2856,-396,15028,-55,181,262
45408459,-2424,-436,14716,-91,201,176
45411867,-2880,-496,15164,-46,154,218
45415226,-2596,-572,14960,-19,240,245
45418609,-2624,-468,14864,-49,258,104
45421992,-2564,-584,15040,62,285,198
45425289,-2656,-372,14892,-87,202,185
45428672,-2768,-372,14936,-11,195,195
45432055,-2420,-472,14732,2,166,204
45435269,-2724,-428,14912,-177,360,35
45438673,-2920,-352,15156,2,171,350
45441858,-2604,-444,14840,-110,268,86
45445241,-2836,-364,15012,-37,230,279
45448625,-2504,-516,14804,-117,202,131
45452095,-2816,-496,15144,-63,284,157
45455478,-2824,-324,14952,26,100,265
45458774,-2600,-536,14792,-55,353,9
45462031,-3052,-408,15160,-17,201,246
45465367,-2572,-564,14824,80,219,192
45468664,-2496,-324,14712,-171,343,60
45472082,-2780,-416,15044,32,1,386
45475170,-2420,-572,14820,-145,394,52
45478553,-2876,-308,15128,-31,109,251
45481937,-2604,-548,14928,5,257,190
45485150,-2624,-412,15056,-75,219,157
45488554,-2688,-456,15048,30,185,192
45491826,-2748,-356,14912,-61,272,136
45495209,-2640,-512,14952,70,144,251
45498506,-2556,-448,14800,-92,345,109
45501889,-2732,-468,15036,-66,159,202
45505272,-2732,-460,14864,-111,369,107
45508742,-2564,-468,15032,-42,158,268
45512150,-2648,-564,14892,-8,257,149
45515422,-2832,-556,15112,-5,221,245
45518719,-2548,-496,14876,-71,212,155
45522102,-2924,-444,15076,-84,262,153
45525485,-2640,-340,14852,-21,166,183
45528868,-2956,-328,15216,-3,314,141
45532165,-2344,-508,14588,16,218,192
45535465,-2828,-276,14984,-97,270,122
45538869,-2808,-400,15060,-39,125,259
45542228,-2448,-460,14616,-12,244,157
45545611,-2784,-508,15224,-67,223,258
45548994,-2484,-368,14700,-33,210,161
45552378,-2872,-420,15152,46,301,240
45555674,-2564,-468,14752,9,164,225
45558884,-2824,-412,14936,-6,360,125
45562240,-2616,-496,14948,-33,95,264
45565477,-2732,-356,14820,-29,235,177
45568860,-2640,-524,15220,-56,242,194
45572278,-2736,-392,14752,-84,199,152
45575627,-2784,-560,15000,85,207,320
45578923,-2452,-488,14636,-102,215,108
45582393,-3052,-528,15188,57,184,333
45585714,-2332,-456,14728,-170,289,30
45589073,-2984,-356,15184,36,274,200
45592369,-2412,-460,14828,-35,278,160
45595753,-2912,-512,15012,-1,250,117
45599049,-2492,-484,14944,-11,225,244
45602432,-2936,-344,15056,-93,186,120
45605816,-2604,-448,14868,-34,217,331
45609199,-2672,-388,14976,-178,230,125
45612693,-2584,-428,14944,54,182,286
45615965,-2400,-496,14628,-227,253,36
45619349,-3168,-352,15344,141,76,370
45622645,-2284,-444,14496,-28,305,153
45626028,-3048,-432,15196,-23,234,137
45629412,-2272,-528,14400,53,241,233
45632708,-2832,-404,15092,-114,256,66
45636116,-2564,-436,14904,-52,263,193
45639475,-2804,-372,15044,-188,236,63
45642858,-2848,-484,15176,29,218,246
45646154,-2452,-500,14768,-122,294,124
45649624,-2916,-396,15244,-27,197,203
45653008,-2668,-360,14752,-31,195,247
45656391,-2836,-340,15040,-60,231,135
45659774,-2704,-444,14948,62,251,263
45663118,-2644,-476,14800,-60,240,103
45666454,-2936,-300,15056,77,153,301
45669750,-2244,-536,14448,-142,279,139
45673255,-3228,-188,15444,-25,92,297
45676517,-2260,-648,14772,-30,267,208
45679900,-2984,-244,14952,-152,213,95
45683283,-2448,-492,14780,-29,245,170
45686691,-2740,-544,15072,-98,242,103
45690050,-2680,-456,14932,17,173,248
45693346,-2676,-468,14788,-33,312,97
45696643,-2736,-392,14812,24,133,265
45699939,-2624,-432,14944,-42,328,164
45703323,-2480,-548,14884,-96,201,148
45706706,-2980,-388,15068,-98,298,178
45710093,-2616,-516,15064,0,133,232
45713323,-2784,-440,15056,-116,354,72
45716682,-2776,-476,15084,3,89,305
45719805,-2420,-512,14872,-103,338,70
45723188,-2920,-304,15060,50,199,306
45726485,-2320,-592,14832,-28,237,121
45729868,-3048,-364,15148,103,224,316
45733251,-2600,-364,15048,-31,202,145
45736659,-2540,-468,14700,-102,281,132
45740105,-2776,-456,14944,-98,241,210
45743488,-2752,-380,14928,-25,157,245
45746871,-2532,-432,14744,-114,324,133
45750341,-2916,-556,15120,26,131,231
45753638,-2476,-488,14724,-44,310,159
45757021,-2796,-280,15040,-55,195,203
45760408,-2788,-524,14952,37,233,233
45763748,-2656,-424,14872,-22,182,172
45767084,-2668,-332,14900,-78,262,110
45770467,-2748,-480,15188,-52,257,185
45773885,-2732,-328,14972,-86,150,186
45777234,-2776,-284,15056,63,231,314
45780530,-2520,-476,14760,-126,180,146
45784000,-2748,-536,15212,-82,295,151
45787408,-2828,-436,14968,-78,168,197
45790767,-2772,-524,15272,94,163,288
45794063,-2500,-468,14840,-138,323,95
45797446,-3100,-364,15216,148,149,308
45800830,-2220,-512,14564,-120,383,19
45804213,-3180,-288,15336,-142,215,132
45807683,-2512,-524,14916,-32,229,235
45811091,-3040,-364,15144,-247,334,-17
45814536,-2688,-564,15120,125,120,336
45817919,-2732,-480,14904,-181,371,28
45821303,-2864,-632,15192,103,73,337
45824599,-2432,-416,14736,-49,312,143
45827982,-2984,-504,15316,16,208,144
45831279,-2632,-376,14744,89,232,254
45834575,-2624,-552,14868,-164,323,-11
45838070,-2512,-516,14952,24,154,309
45841342,-2812,-456,15076,-165,257,99
45844725,-2756,-436,15068,-22,120,249
45848108,-2636,-372,14864,-117,290,143
45851578,-2836,-476,15144,-31,120,223
45854962,-2656,-496,14904,27,264,210
45858258,-2728,-372,14872,-76,221,144
45861688,-2720,-532,15164,67,181,232
45864938,-2592,-476,14856,0,199,240
45868148,-2796,-412,14980,-129,293,63
45871531,-2736,-412,14904,-59,298,183
45874949,-2780,-404,15052,-70,207,183
45878297,-2716,-584,15012,-42,290,171
45881681,-2680,-412,14724,-83,201,165
45885067,-2560,-408,15000,9,263,215
45888298,-2716,-468,14948,-88,184,137
45891657,-2660,-488,14844,-2,219,156
45894953,-2796,-372,14956,-68,234,158
45898337,-2572,-364,14776,16,222,191
45901633,-2728,-440,15024,-62,359,146
45905016,-2684,-540,14980,-6,127,224
45908313,-2616,-324,14924,-72,287,216
45911721,-2760,-536,15056,-80,156,192
45915079,-2660,-360,14720,-30,275,199
45918463,-2696,-576,15116,-88,245,125
45921846,-2848,-440,14880,58,200,248
45925142,-2428,-588,15124,-76,321,60
45928439,-3064,-268,14996,96,48,358
45931649,-2424,-424,14852,-144,441,-9
45935035,-2968,-376,15168,25,104,289
45938353,-2404,-492,14748,-81,383,89
45941625,-2972,-340,15336,-52,129,258
45945008,-2448,-448,14792,2,243,205
45948218,-2772,-364,15048,-165,222,107
45951688,-2740,-472,15008,45,112,288
45954984,-2424,-668,14792,-132,346,45
45958368,-3020,-392,15204,55,80,289
45961626,-2368,-424,14596,-13,343,157
45964961,-3032,-284,14804,-59,194,126
45968344,-2448,-456,14640,-61,250,150
45971727,-2840,-504,14988,-131,308,83
45975145,-2916,-452,15196,-9,152,322
45978407,-2640,-460,15008,-76,300,122
45981790,-2824,-444,15076,-76,213,160
45985177,-2768,-388,15040,40,234,275
45988494,-2680,-524,15016,-32,210,161
45991853,-2624,-392,14820,29,190,308
45995150,-2608,-440,14812,-103,239,102
45998620,-2752,-488,14788,19,267,174
46001916,-2616,-372,14924,-122,212,132
46005386,-2648,-420,14760,-57,196,174
46008769,-2652,-532,14888,-23,186,237
46012177,-2768,-292,14900,-109,134,219
46015623,-2372,-600,14892,-2,273,209
46018919,-2772,-452,14932,-107,192,139
46022389,-2544,-496,14840,51,235,175
46025686,-2684,-360,15068,-149,270,113
46029156,-2680,-432,14860,-6,162,193
46032452,-2984,-364,15128,65,288,201
46035773,-2536,-488,14736,-25,152,180
46039132,-2896,-352,15136,-34,241,202
46042515,-2420,-500,14916,-29,137,260
46045898,-2644,-548,14852,-113,344,76
46049282,-2860,-444,15144,-32,228,224
46052665,-2612,-456,14912,-83,189,183
46056048,-2936,-496,15044,-10,227,210
46059431,-2464,-552,14892,-46,260,67
46062829,-2992,-516,15268,-3,268,220
46066024,-2588,-408,14824,49,172,194
46069321,-2944,-252,14816,-36,250,197
46072704,-2560,-488,14952,-40,225,171
46076126,-2768,-328,15036,-68,158,211
46079471,-2580,-536,14864,-85,304,183
46082854,-2744,-392,14972,-98,225,117
46086262,-2732,-424,15060,3,198,290
46089447,-2552,-524,14888,-61,202,132
46092830,-2852,-476,15096,31,257,233
46096127,-2452,-436,14852,-55,263,123
46099510,-2812,-400,15108,-14,256,202
46102893,-2748,-452,14964,-26,131,259
46106276,-2628,-440,15036,-98,258,76
46109573,-2816,-456,15140,-19,266,241
46112981,-2496,-448,14920,-75,243,104
46116339,-2760,-548,15316,-1,217,265
46119636,-2464,-356,14488,-120,226,117
46123106,-2964,-424,15200,21,164,248
46126402,-2604,-484,14852,-26,212,259
46129786,-2472,-400,14720,-32,236,175
46133169,-2908,-400,15128,38,272,205
46136490,-2400,-556,14608,-96,242,111
46139849,-2944,-232,14912,-128,349,115
46143319,-2664,-424,15016,-33,163,184
46146702,-2628,-312,15084,-44,263,233
46150085,-2676,-384,14872,-91,286,171
46153468,-2660,-432,15004,10,173,224
46156765,-2688,-604,14812,-38,237,210
46160152,-2636,-492,14860,-41,181,186
46163578,-2828,-384,15112,15,329,173
46166828,-2688,-428,15052,3,128,276
46170038,-2608,-404,14812,-172,418,-48
46173508,-2920,-404,15136,-30,166,291
46176926,-2484,-448,14840,-85,218,149
46180274,-2900,-468,15168,-111,371,96
46183657,-2700,-448,14800,-22,111,291
46187065,-2728,-452,15016,-99,394,55
46190337,-2796,-380,15140,86,42,340
46193547,-2492,-516,14700,-10,363,96
46196843,-3076,-464,15228,42,115,356
46200140,-2620,-584,15004,-31,300,112
46203523,-2820,-476,14844,-46,217,201
46206906,-2592,-412,14920,-116,201,158
46210380,-2816,-484,15076,-67,270,223
46213784,-2604,-340,14704,-65,151,169
46217143,-2888,-416,15248,-94,314,129
46220526,-2764,-420,14936,8,99,237
46223649,-2524,-472,14804,-89,386,81
46226946,-2724,-416,15116,48,230,184
46230242,-2524,-504,14852,-46,247,205
46233625,-2844,-308,15056,-13,220,196
46237033,-2424,-388,14804,-71,189,134
46240392,-3060,-344,15072,-149,398,109
46243862,-2524,-488,14848,-9,145,238
46247158,-2704,-484,15000,-89,285,164
46250542,-2856,-492,15032,-59,121,239
46253925,-2640,-408,14876,-68,229,156
46257308,-2864,-440,15016,-71,244,201
46260738,-2600,-436,14948,-30,194,153
46264075,-2636,-464,15184,-28,301,156
46267458,-2760,-380,14756,53,167,259
46270754,-2464,-468,14892,-85,309,44
46274051,-3004,-424,15400,-74,168,260
46277469,-2432,-472,14848,21,174,246
46280731,-2716,-356,14892,-138,330,120
46284201,-2644,-520,15004,-9,90,281
46287435,-2540,-388,14628,-191,388,51
46290794,-2716,-436,14976,67,73,338
46294003,-2468,-460,14852,-49,370,89
46297300,-3012,-432,15064,14,147,236
46300596,-2232,-516,14580,-33,288,77
46303893,-3024,-332,14984,-7,195,256
46307189,-2336,-504,14804,-84,256,131
46310597,-2940,-384,15208,-55,194,281
46313956,-2528,-324,14880,-52,197,150
46317339,-2704,-408,15060,-74,273,188
46320722,-2764,-464,15052,-26,183,183
46324106,-2512,-460,14852,22,291,180
46327402,-2716,-412,14964,-55,197,177
46330785,-2696,-512,15076,34,153,244
46334082,-2592,-508,14804,-82,329,123
46337490,-2852,-484,15036,-46,200,188
46340848,-2604,-508,15084,-50,290,174
46344232,-2644,-312,14948,-22,126,275
46347615,-2668,-464,15000,-37,314,106
46350998,-2712,-360,15092,-87,192,247
46354381,-2520,-472,14940,-29,190,138
46357765,-2632,-420,14988,-35,248,229
46361195,-2680,-536,15040,-57,253,65
46364444,-2756,-416,14916,95,193,298
46367741,-2496,-436,14792,-90,269,102
46371124,-3044,-312,14988,-5,223,216
46374421,-2508,-504,14608,-171,311,75
46377839,-3040,-492,15224,-40,174,218
46381187,-2572,-304,14824,0,173,316
46384397,-2424,-524,14780,-119,277,35
46387805,-2716,-452,15032,92,189,351
46391077,-2428,-608,14940,-135,262,57
46394460,-3020,-344,15140,97,161,296
46397756,-2532,-448,14832,-72,278,107
46401140,-2860,-440,15108,52,177,279
46404436,-2540,-440,14712,-112,366,91
46407819,-2824,-380,15108,-80,197,212
46411227,-2556,-484,14916,0,303,180
46414412,-2760,-436,15028,-58,151,187
46417796,-2688,-452,15004,-27,256,213
46421179,-2736,-420,15008,-71,148,203
46424562,-2756,-432,15128,13,280,91
46427772,-2680,-584,14952,-47,193,255
46431155,-2756,-412,14904,69,245,161
46434452,-2628,-592,15000,53,304,230
46437773,-2692,-424,14972,-51,210,132
46441131,-2792,-464,15048,-101,305,159
46444601,-2456,-432,14816,-130,177,205
46448071,-2944,-520,15184,-14,301,164
46451455,-2468,-508,14664,12,143,301
46454751,-2660,-388,14928,-149,313,30
46458134,-2912,-324,15168,114,167,378
46461565,-2492,-472,14708,-193,370,-88
46464988,-3080,-408,15260,64,169,358
46468284,-2280,-532,14564,-187,299,24
46471667,-2976,-524,15148,41,187,269
46474964,-2368,-472,14476,-114,228,98
46478382,-3108,-448,15260,-16,173,213
46481730,-2476,-536,14844,14,180,309
46485030,-2620,-424,14632,-169,282,53
46488439,-2836,-488,15104,23,216,269
46491707,-2416,-512,14804,-85,211,151
46495090,-2948,-416,15276,90,211,279
46498386,-2524,-532,14764,56,131,268
46501683,-2624,-352,14752,-94,356,12
46504979,-3012,-560,15192,25,167,244
46508276,-2756,-332,14752,-139,259,74
46511684,-2752,-572,15168,14,164,353
46514956,-2636,-336,14820,-165,232,98
46518339,-3024,-476,15268,53,133,325
46521635,-2360,-372,14620,-77,198,206
46525019,-2860,-544,15028,-31,213,136
46528402,-2444,-552,14864,19,204,272
46531698,-2704,-456,14760,-60,325,40
46534998,-2916,-388,15008,34,228,288
46538316,-2704,-408,14940,-36,247,49
46541588,-2748,-428,14928,-45,231,268
46544971,-2596,-504,14892,-111,206,175
46548441,-2612,-440,14928,-18,195,261
46551824,-2724,-512,14976,-81,243,103
46555208,-2692,-428,14800,11,169,267
46558504,-2676,-488,14960,-93,273,114
46561947,-2928,-476,15040,-25,154,196
46565271,-2576,-440,14956,33,271,217
46568567,-2708,-432,14960,37,163,215
46571864,-2552,-588,14864,1,297,167
46575073,-2460,-540,14784,-51,143,264
46578492,-2632,-272,14820,-165,347,50
46581840,-2840,-444,15260,-58,189,279
46585227,-2852,-252,14892,-189,290,5
46588544,-2800,-508,15108,45,196,329
46591816,-2636,-524,14828,-39,226,125
46595199,-2588,-544,15076,43,327,169
46598496,-2948,-248,14904,31,113,286
46601792,-2340,-552,14716,-62,338,34
46605089,-2804,-476,15064,-120,194,174
46608559,-2620,-384,15000,32,181,255
46611880,-2676,-544,14988,-145,326,106
46615325,-2784,-384,14920,107,76,344
46618622,-2336,-564,14972,-162,362,69
46622005,-2784,-400,15212,25,87,331
46625215,-2376,-588,14864,-46,316,86
46628511,-2896,-420,15148,-31,191,205
46631895,-2448,-532,14864,-49,266,116
46635281,-2988,-412,15276,44,258,226
46638599,-2320,-472,14616,-25,218,162
46641958,-3148,-340,15172,-70,276,175
46645341,-2392,-660,14832,46,82,285
46648551,-2856,-384,14832,-173,346,66
46651934,-2668,-456,14976,20,152,300
46655230,-2612,-368,14916,-110,283,101
46658700,-2848,-456,15260,32,234,258
46662044,-2372,-600,14680,-72,274,63
46665293,-3008,-292,15280,-28,255,257
46668677,-2412,-552,14816,-27,217,132
46672060,-2956,-412,15020,-69,221,195
46675443,-2512,-444,15016,-23,217,206
46678861,-2720,-528,15240,-71,219,125
46682210,-2820,-344,15004,2,189,290
46685444,-2488,-504,14828,-123,251,47
46688803,-2960,-492,15212,65,189,294
46692099,-2524,-496,15028,-38,188,194
46695482,-2748,-360,14936,-65,332,126
46698866,-2628,-436,14892,-14,187,251
46702249,-2748,-456,14996,-31,238,166
46705632,-2656,-392,14692,-35,301,128
46709015,-2868,-376,15056,-63,229,122
46712423,-2580,-468,14972,13,223,304
46715695,-2708,-448,14880,-140,231,117
46719165,-2624,-620,14936,30,185,242
46722462,-2692,-348,14860,-134,282,124
46725932,-2748,-556,14940,38,132,246
46729228,-2500,-480,14912,-54,325,152
46732611,-2856,-304,14972,-24,133,220
46736019,-2712,-456,14828,53,260,203
46739291,-2744,-340,14892,-72,190,119
46742674,-2848,-444,15064,18,204,249
46745971,-2616,-524,14904,-189,335,54
46749354,-2876,-324,15068,-28,143,224
46752737,-2552,-420,14784,-21,300,201
46756121,-2648,-532,14888,-80,173,171
46759504,-2804,-584,15020,62,228,240
46762847,-2692,-560,14904,-77,281,77
46766097,-2716,-464,15160,127,166,283
46769480,-2600,-300,14676,-87,313,189
46772863,-2788,-548,15072,-46,186,146
46776247,-2608,-460,14832,-63,283,202
46779665,-2960,-476,15160,-122,240,122
46783100,-2728,-428,14956,80,198,269
46786421,-2580,-516,14884,-135,309,85
46789780,-2772,-420,15128,22,133,267
46793076,-2552,-504,14844,-91,307,104
46796459,-2760,-440,14980,-19,127,248
46799843,-2764,-344,14912,37,301,197
46803139,-2704,-480,14968,-70,207,115
46806522,-2724,-220,14756,-35,212,213
46809909,-2872,-412,15052,-149,290,61
46813313,-2684,-528,15024,12,137,241
46816585,-2748,-356,14936,-177,354,91
46819969,-2720,-500,15052,10,121,279
46823265,-2476,-464,14872,-47,361,103
46826648,-2892,-444,15324,51,105,290
46829945,-2456,-472,14696,-33,315,135
46833328,-2912,-412,15116,30,145,253
46836649,-2260,-452,14424,-34,188,264
46840008,-3000,-196,15124,-204,334,20
46843391,-2608,-584,14748,-25,171,182
46846774,-3028,-344,15000,-152,345,102
46850244,-2684,-572,14928,25,103,238
46853541,-2756,-424,14900,-113,325,111
46857011,-2664,-564,15108,-39,171,229
46860441,-2872,-448,15080,15,149,245
46863691,-2512,-564,14724,-71,338,123
46867074,-2944,-436,15292,6,194,164
46870284,-2584,-480,14916,39,243,226
46873580,-2512,-420,14748,-81,253,100
46876963,-2944,-532,15088,-30,267,209
46880382,-2380,-512,14860,-166,248,107
46883817,-2976,-336,15044,-32,210,199
46887224,-2524,-404,14916,-128,326,121
46890670,-3008,-436,15212,12,165,188
46893966,-2248,-544,14872,-43,274,189
46897350,-3100,-348,15180,14,143,230
46900646,-2404,-504,14896,96,299,245
46903943,-2824,-364,14880,-116,274,47
46907326,-2448,-460,14720,-5,209,258
46910647,-2824,-332,14912,-167,324,79
46914006,-2620,-504,15040,-54,180,298
46917389,-2828,-376,14924,-71,257,219
46920772,-2660,-464,14888,-41,192,197
46924155,-2712,-528,14928,1,298,200
46927365,-2700,-472,15052,35,154,193
46930662,-2380,-512,14860,-23,367,136
46934045,-2948,-384,15108,10,138,309
46937366,-2500,-444,14680,-15,312,76
46940638,-2832,-452,14964,-145,254,141
46944108,-2744,-440,14860,-126,207,141
46947578,-2892,-488,15240,-41,267,243
46950961,-2428,-520,14720,-89,231,120
46954344,-2976,-408,15164,-93,319,118
46957728,-2792,-468,15016,97,31,354
46960985,-2392,-556,14644,-94,337,73
46964234,-2908,-504,15256,65,165,303
46967530,-2332,-492,14600,-68,249,119
46970914,-2908,-424,15216,60,273,210
46974210,-2668,-404,14732,-4,136,245
46977507,-2552,-492,14912,-132,337,147
46981012,-2596,-408,14908,-108,181,175
46984447,-2836,-392,14940,-123,345,59
46987854,-2784,-512,15092,-2,136,244
46991126,-2624,-380,14752,-25,230,180
46994510,-2780,-436,15036,-22,294,140
46997893,-2836,-424,15152,90,114,312
47001189,-2492,-544,14760,-91,312,128
47004573,-2816,-492,15100,-11,155,192
47007956,-2540,-564,14660,-136,340,57
47011364,-2908,-404,15256,-39,153,224
47014722,-2460,-584,14840,23,245,211
47018019,-2876,-344,14980,-153,287,164
47021489,-2788,-492,15036,42,164,226
47024785,-2504,-492,14784,-52,348,129
47028169,-2936,-268,15120,-41,141,233
47031552,-2540,-428,14992,44,289,135
47034848,-2804,-540,15084,39,189,219
47038169,-2416,-420,14764,-69,300,117
47041528,-2940,-372,15008,-145,236,158
47044998,-2540,-504,14972,-37,162,243
47048381,-2656,-488,15052,-39,272,131
47051765,-2692,-456,14760,-135,207,139
47055235,-2988,-324,15120,-7,235,229
47058531,-2608,-432,14888,25,153,239
47061929,-2564,-476,14936,0,279,143
47065037,-2848,-392,15008,-35,198,242
47068421,-2496,-504,14804,-16,261,171
47071804,-2956,-328,15140,-10,268,250
47075187,-2284,-476,14736,11,213,154
47078484,-3072,-512,15196,-159,360,130
47081993,-2228,-568,14712,14,144,285
47085254,-2908,-380,14980,-87,263,132
47088658,-2500,-556,15140,-30,241,208
47092017,-2784,-436,14860,-29,145,219
47095400,-2484,-524,14884,-25,287,196
47098783,-2840,-456,15096,-54,220,118
47102166,-2752,-352,14968,88,205,316
47105463,-2480,-484,14804,-94,226,90
47108759,-2888,-508,15032,4,281,211
47111994,-2948,-324,14952,-88,200,137
47115352,-2496,-676,14944,-38,281,184
47118736,-2940,-512,14972,-29,228,227
47122119,-2600,-700,14932,-28,201,190
47125502,-2628,-480,14924,-119,292,93
47128885,-2796,-496,15240,81,81,309
47132095,-2228,-472,14660,-28,352,111
47135503,-2936,-320,15168,-12,149,212
47138862,-2544,-564,14880,24,293,201
47142158,-2696,-392,14920,-93,197,158
47145541,-2860,-368,14980,-29,138,297
47148925,-2584,-492,14872,-169,322,31
47152308,-2780,-288,14956,-84,186,257
47155691,-2532,-524,14692,-104,364,121
47159161,-3000,-368,15128,0,120,252
47162418,-2640,-512,14952,39,310,180
47165667,-2604,-512,14872,-51,221,165
47169051,-2920,-284,14968,95,129,345
47172347,-2336,-420,14708,-111,353,22
47175730,-2808,-516,15100,-4,139,232
47179027,-2668,-476,14804,-69,321,163
47182445,-2692,-524,15308,2,143,217
47185644,-2528,-392,14948,-22,246,220
47189003,-2588,-436,14964,-126,209,135
47192473,-2852,-392,14972,3,141,228
47195683,-2564,-392,14780,-116,314,62
47199066,-2872,-464,15156,38,161,207
47202363,-2524,-404,14740,-40,351,126
47205746,-2848,-292,14920,31,175,161
47209042,-2576,-420,14832,-40,250,204
47212450,-2772,-312,14908,-115,226,146
47215896,-2604,-440,14840,16,159,282
47219192,-2748,-348,14920,-101,303,104
47222662,-2416,-492,14976,38,104,292
47225959,-2508,-444,14780,-108,342,118
47229429,-2976,-324,15184,80,93,323
47232638,-2492,-400,14760,-9,382,83
47235873,-2980,-312,15148,-9,185,247
47239145,-2200,-572,14620,-13,302,140
47242528,-3228,-352,15400,-153,185,229
47245998,-2372,-480,14940,97,148,291
47249294,-2596,-468,14904,-138,343,81
47252678,-2844,-372,15136,-27,183,227
47256061,-2532,-500,14904,-34,298,189
47259444,-2872,-464,14956,-86,215,169
47262874,-2760,-568,14940,95,203,321
47266124,-2576,-384,14784,-36,175,206
47269507,-3100,-356,15076,22,229,148
47272804,-2360,-576,14892,-27,238,196
47276187,-2812,-268,14892,-99,184,166
47279570,-2772,-388,14948,21,271,252
47282902,-2532,-488,14720,-87,233,108
47286274,-2900,-432,15108,-22,197,282
47289633,-2496,-412,14832,-103,216,115
47293103,-2900,-396,15016,-108,236,155
47296573,-2680,-472,14868,-7,254,214
47299870,-2724,-420,14912,5,197,205
47303079,-2652,-576,15044,-39,299,144
47306463,-2716,-432,14908,68,138,278
47309759,-2620,-304,14636,-54,254,220
47313167,-2908,-320,14916,-67,169,212
47316526,-2272,-496,14652,-67,263,158
47319909,-2804,-360,15092,-180,279,70
47323292,-2728,-480,14948,8,95,315
47326415,-2656,-424,14880,-187,429,1
47329712,-2856,-332,15184,45,90,330
47332921,-2524,-572,14884,-5,376,96
47336156,-2720,-424,15196,44,165,211
47339428,-2588,-280,14692,-31,223,215
47342811,-2656,-444,14976,-150,310,-24
47346281,-2592,-576,14920,10,72,347
47349491,-2576,-352,14744,-204,425,-62
47352961,-3084,-532,15280,49,108,331
47356257,-2508,-432,14700,-103,315,142
47359727,-2788,-480,15052,-48,182,183
47363158,-2600,-540,15088,32,286,188
47366407,-2808,-496,15260,40,115,290
47369703,-2416,-564,14740,64,265,204
47373000,-2704,-376,14820,-105,298,108
47376470,-2708,-468,14976,-31,161,273
47379853,-2632,-364,14888,-158,359,23
47383271,-2696,-568,15128,40,72,334
47386471,-2456,-412,14680,-142,371,102
47389916,-3008,-500,15248,42,114,328
47393213,-2340,-548,14792,-105,330,88
47396596,-2916,-420,15184,-68,139,205
47399979,-2640,-512,15052,6,195,229
47403189,-2452,-584,14748,-130,381,44
47406572,-3148,-324,15396,53,87,310
47409782,-2160,-540,14464,-35,335,147
47413190,-3164,-484,15420,-135,182,139
47416635,-2464,-472,14888,145,125,392
47420018,-2456,-388,14888,-199,322,76
47423402,-2564,-464,15084,43,94,375
47426611,-2508,-460,14764,-194,411,-4
47429995,-3012,-476,15408,118,53,379
47433291,-2432,-428,14448,-26,398,84
47436612,-2952,-504,15376,19,142,195
47439884,-2420,-452,14652,-7,252,155
47443181,-3188,-268,15188,-131,267,97
47446564,-2528,-428,14748,66,105,396
47449860,-2604,-372,14832,-208,400,28
47453244,-2464,-464,14708,117,15,459
47456540,-2588,-468,14820,-264,476,-106
47460100,-2600,-620,14900,134,-17,431
47463527,-2420,-484,14640,-158,437,-23
47466950,-3056,-484,15560,162,29,435
47470247,-2132,-548,14624,-35,336,86
47473543,-3144,-404,15336,-77,270,145
47476926,-2660,-464,14576,-42,131,247
47480310,-2880,-352,15008,-227,463,-19
47483815,-2824,-496,15108,-31,92,276
47487101,-2760,-408,14960,-179,401,18
47490459,-2928,-348,15256,-6,62,303
47493669,-2332,-576,14768,-69,297,51
47496966,-2924,-460,15288,-38,267,204
47500349,-2640,-504,14912,97,145,246
47503645,-2784,-532,14980,16,276,194
47506942,-2716,-360,14700,-128,240,109
47510436,-2712,-444,15016,-40,327,119
47513795,-2780,-356,14840,-54,155,313
47517178,-2804,-504,14956,-64,284,123
47520562,-2784,-476,15144,-22,189,238
47523945,-2652,-540,15044,-84,195,130
47527328,-2680,-548,14960,-11,270,227
47530711,-2532,-508,14900,-78,244,116
47534095,-2648,-552,14968,120,179,305
47537502,-2452,-360,14448,-194,355,20
47540861,-2900,-436,15068,120,56,378
47544158,-2432,-408,14616,-37,370,122
47547541,-2788,-536,15012,-57,180,166
47550924,-2584,-412,14760,-18,261,232
47554307,-2828,-504,15092,-152,265,76
47557691,-2692,-420,14900,-10,139,265
47561133,-2816,-496,15024,-186,385,41
47564457,-2788,-440,15176,75,74,335
47567667,-2408,-516,14908,-40,368,68
47570963,-2748,-428,15088,51,140,267
47574260,-2440,-572,14800,-28,329,127
47577643,-2940,-300,14976,-106,214,139
47581113,-2844,-368,15064,11,169,264
47584445,-2388,-528,14844,-96,351,127
47587817,-2848,-388,15044,-94,157,177
47591176,-2492,-544,14884,-20,248,287
47594559,-2820,-312,14928,-134,146,205
47598029,-2616,-520,15032,54,269,184
47601326,-2596,-532,14880,-129,221,128
47604796,-3176,-508,15232,178,130,312
47608179,-2152,-488,14356,-117,323,102
47611674,-3120,-292,15304,-64,106,283
47615032,-2332,-592,14756,25,326,153
47618329,-2868,-328,15052,-112,152,216
47621799,-2632,-392,14968,-69,295,52
47625095,-2828,-524,15288,-74,114,289
47628479,-2496,-476,14812,-66,202,146
47631862,-2952,-352,15040,-25,252,259
47635249,-2228,-604,14724,-11,252,116
47638653,-3028,-320,15216,80,186,342
47641925,-2364,-508,14628,-40,244,51
47645221,-2828,-432,15020,-116,355,98
47648605,-2848,-432,15016,-20,149,255
47651988,-2512,-556,14788,-36,206,225
47655371,-2744,-464,14868,-39,302,192
47658754,-2556,-412,14780,-59,219,138
47662185,-2908,-404,15112,5,256,235
47665347,-2520,-464,14716,-150,274,49
47668731,-2776,-420,15176,45,155,265
47672027,-2620,-368,14740,-17,173,225
47675410,-2624,-472,14920,-25,231,170
47678794,-2460,-432,14624,-1,300,186
47682090,-2808,-452,15084,-116,219,109
47685603,-2772,-440,14904,27,208,257
47688857,-2516,-464,14832,-91,193,132
47692240,-2896,-576,15124,19,188,244
47695536,-2432,-604,14944,-48,196,234
47698920,-2620,-404,14884,-103,268,89
47702303,-2988,-532,15108,132,244,290
47705686,-2496,-508,14812,8,144,188
47708896,-2808,-188,14892,-78,382,75
47712217,-2580,-500,14996,-76,243,141
47715576,-2692,-408,14976,-21,197,238
47718959,-2584,-484,14832,-77,277,153
47722342,-2780,-336,15064,25,123,264
47725639,-2512,-504,14820,-104,299,141
47729109,-2928,-436,15072,-26,81,270
47732405,-2424,-432,14812,-73,340,133
47735813,-2816,-608,15016,-48,271,56
47739085,-2812,-436,15152,167,197,338
47742468,-2540,-536,14816,-94,322,45
47745765,-2920,-300,15072,54,178,291
47749061,-2320,-464,14612,-208,273,81
47752444,-2964,-292,15184,27,111,275
47755741,-2352,-504,14628,-110,289,195
47759211,-2880,-452,15176,-54,129,228
47762642,-2288,-652,14824,77,199,302
47765891,-2784,-496,15012,-81,293,14
47769187,-2692,-524,14992,121,154,300
47772570,-2824,-288,15052,-204,359,-32
47776040,-3004,-332,15228,92,53,369
47779250,-2432,-212,14336,-210,461,-28
47782720,-3228,-524,15656,-64,178,175
47786145,-2456,-472,14580,-19,256,211
47789487,-3128,-392,15200,-125,268,34
47792870,-2596,-376,14660,7,142,345
47796080,-2716,-292,15080,-100,279,130
47799550,-2572,-492,14884,34,77,362
47802759,-2508,-564,14868,-156,455,-70
47806229,-2680,-448,15276,200,5,441
47809439,-2452,-396,14484,-105,411,39
47812847,-3024,-480,15296,-92,203,165
47816206,-2408,-256,14716,-2,196,251
47819502,-2772,-556,15072,-255,324,-24
47822972,-2952,-444,15096,43,78,362
47826182,-2836,-432,15168,-239,373,-3
47829565,-2792,-472,14948,68,53,362
47832775,-2548,-388,14812,-69,373,27
47836096,-2784,-464,15148,90,106,279
47839368,-2472,-304,14728,-18,360,112
47842751,-2740,-516,14952,-70,226,111
47846134,-2400,-452,14748,10,170,296
47849431,-2928,-340,15004,-150,327,28
47852814,-2756,-552,15164,52,133,360
47856111,-2804,-300,14888,-233,372,61
47859494,-2824,-580,15176,57,113,289
47862839,-2504,-428,14776,-98,287,148
47866174,-2788,-452,15012,39,116,258
47869470,-2460,-504,14792,-88,368,32
47872767,-3100,-312,15076,71,86,357
47875976,-2212,-516,14696,-51,314,0
47879186,-3092,-312,15256,56,147,417
47882483,-2184,-492,14564,-93,231,116
47885889,-2996,-284,15268,-33,246,223
47889284,-2248,-492,14656,-80,168,196
47892632,-2944,-392,15104,-115,329,134
47896102,-2464,-420,14804,-42,162,212
47899486,-2816,-464,15220,-50,322,66
47902782,-2548,-444,14944,52,252,245
47906079,-2784,-444,14972,-70,247,96
47909375,-2804,-480,15172,76,137,363
47912696,-2280,-384,14364,-170,368,-74
47915770,-1,-1,-1,-1,-1,-1
47918199,-1,-1,-1,-1,-1,-1
47921000,-2788,-400,14896,-185,442,7
47924296,-2664,-596,15148,33,50,331
47927506,-2592,-412,14816,-141,403,55
47930889,-2828,-372,15256,11,173,233
47934186,-2700,-392,14748,48,242,261
47937507,-2784,-408,15020,-29,223,86
47940779,-2756,-400,15044,69,155,295
47944075,-2592,-440,14716,-99,277,89
47947372,-2804,-444,15016,-57,179,226
47950755,-2708,-512,14920,-37,298,153
47954138,-2444,-468,15076,-3,103,290
47957435,-2668,-452,14964,-132,395,51
47960867,-2516,-620,15052,-17,126,241
47964201,-2760,-348,14840,-91,296,98
47967498,-2800,-408,15212,-5,131,273
47970794,-2720,-384,14908,39,209,180
47974091,-2652,-548,15144,-102,381,30
47977474,-2708,-356,14896,25,162,231
47980770,-2648,-468,14972,-92,342,138
47984154,-2744,-476,15260,-115,212,131
47987647,-2848,-448,15172,48,139,357
47990955,-2520,-536,14856,-204,303,13
47994303,-2996,-424,15020,50,98,361
47997513,-2388,-588,14752,-112,384,70
48000896,-2796,-440,14908,86,74,366
48004106,-2408,-484,14780,-42,391,76
48007403,-2784,-472,15280,3,130,247
48010637,-2320,-420,14464,-138,395,-9
48013996,-2956,-396,15108,-60,141,246
48017379,-2512,-460,14812,12,287,168
48020675,-2764,-372,14900,-111,235,168
48024145,-2776,-424,14896,14,136,245
48027442,-2504,-516,14852,-176,290,87
48030825,-3044,-488,15252,57,70,324
48034035,-2300,-380,14632,-54,354,132
48037443,-2916,-492,15108,-11,218,136
48040801,-2756,-304,14864,48,204,257
48044098,-2608,-444,14964,-70,274,104
48047481,-3016,-372,15056,4,106,277
48050691,-2656,-424,14780,-113,357,102
48054161,-2772,-404,15084,-2,124,258
48057457,-2644,-504,14868,-77,300,179
48060943,-2948,-396,14988,-89,194,164
48064224,-2620,-484,14864,19,211,273
48067520,-2656,-520,14728,-113,282,97
48070904,-2748,-420,14900,51,203,210
48074200,-2544,-508,14956,0,248,196
48077410,-2764,-284,14768,0,202,154
48080620,-2688,-496,14984,68,237,268
48083916,-2308,-400,14640,-148,190,145
48087420,-2980,-440,15240,-3,194,248
48090691,-2220,-532,14640,-60,149,243
48094105,-2888,-368,15052,-107,314,71
48097449,-2728,-500,15024,-32,205,284
48100832,-2856,-384,14984,-61,315,11
48104129,-2756,-540,15072,21,217,285
48107425,-2656,-476,14812,-78,189,162
48110833,-2692,-620,15016,43,258,209
48114105,-2552,-420,14872,-65,167,196
48117488,-2744,-428,15016,-14,153,238
48120872,-2388,-516,14824,-24,261,178
48124255,-2880,-432,15200,-83,169,165
48127638,-2464,-504,14820,35,261,244
48130935,-2872,-384,15252,-105,229,102
48134405,-2736,-508,15120,77,207,278
48137726,-2756,-412,14844,-167,308,-16
48141171,-2772,-468,14932,101,155,339
48144554,-2624,-488,14868,-158,367,8
48147851,-2648,-460,15048,-70,223,164
48151234,-2788,-392,15028,-29,258,283
48154617,-2536,-516,15048,1,136,182
48157827,-2788,-248,14840,-94,252,184
48161259,-2656,-432,14968,-101,256,135
48164680,-2776,-452,15072,54,148,305
48167977,-2388,-492,14556,-63,272,92
48171273,-2924,-420,15280,52,81,297
48174483,-2304,-488,14712,-34,325,185
48177866,-3100,-400,15208,-59,234,128
48181250,-2424,-464,14860,-36,305,203
48184633,-2920,-316,15176,-165,227,89
48188039,-2736,-572,15044,21,208,299
48191313,-2468,-392,14808,-175,256,111
48194818,-2904,-432,15172,69,124,322
48198079,-2496,-572,14720,-83,320,126
48201462,-2824,-468,15080,-53,214,178
48204846,-2556,-436,14908,-2,267,197
48208142,-2820,-324,15072,-27,165,188
48211550,-2552,-492,14820,5,305,137
48214735,-2676,-428,14932,-88,171,182
48218118,-2692,-504,14904,-66,220,190
48221502,-2768,-472,15044,-58,225,197
48224885,-2524,-372,14884,-29,138,243
48228268,-2764,-304,15016,-24,278,215
48231651,-2480,-456,14896,-43,169,170
48235038,-2720,-420,14932,2,265,192
48238269,-2864,-576,15008,51,208,187
48241541,-2416,-564,14816,-29,325,109
48244924,-3032,-392,15104,37,150,284
48248221,-2428,-372,14764,-129,309,-1
48251604,-3136,-224,15160,-39,208,288
48254987,-2348,-444,14628,-160,279,2
48258284,-2972,-452,15184,-83,277,183
48261715,-2660,-568,14992,74,90,259
48264877,-2668,-368,14812,-50,281,171
48268260,-2612,-536,14852,21,181,265
48271556,-2616,-464,14944,-31,279,136
48274940,-2776,-364,15136,-32,257,231
48278323,-2400,-340,14596,-101,217,102
48281793,-3092,-392,15128,-101,332,106
48285266,-2400,-560,14604,-31,155,202
48288669,-2964,-312,15224,-59,343,135
48292029,-2500,-548,14980,-42,217,181
48295448,-2776,-476,15048,-127,267,93
48298796,-2704,-456,14964,-83,153,254
48302179,-2764,-388,14908,-63,213,175
48305562,-2736,-532,15224,13,282,181
48308859,-2584,-544,14868,-49,180,178
48312267,-2744,-428,14908,-3,348,67
48315452,-2724,-412,15160,21,108,309
48318748,-2448,-424,14776,-88,331,120
48322132,-2716,-552,15148,-64,199,212
48325515,-2604,-464,14696,-86,201,184
48328898,-2604,-472,14936,-51,257,197
48332281,-2768,-372,14912,-82,202,127
48335689,-2752,-472,15124,-7,300,192
48338961,-2576,-628,14692,-45,232,159
48342344,-2760,-480,15020,66,217,272
48345641,-2572,-352,14752,-23,187,175
48349024,-2760,-360,15016,-65,222,160
48352407,-2664,-392,15084,-66,246,185
48355791,-2776,-384,15044,-60,162,177
48359174,-2412,-464,14792,-40,239,240
48362605,-2788,-292,14900,-127,260,67
48365940,-2900,-484,15276,48,143,285
48369237,-2496,-576,14900,-74,298,115
48372620,-3124,-292,15124,62,110,279
48375917,-2248,-588,14756,-108,453,-38
48379387,-2900,-540,15120,19,47,350
48382596,-2396,-440,14496,-72,388,48
48385916,-2916,-488,15164,6,140,276
48389103,-2368,-556,14884,52,155,332
48392399,-2588,-480,14800,-159,306,23
48395817,-2988,-440,15220,-14,124,292
48399166,-2584,-540,14904,-157,335,35
48402549,-3176,-460,15380,41,143,263
48405845,-2164,-556,14544,-11,391,59
48409142,-2996,-416,15204,-37,162,185
48412550,-2628,-364,14824,86,195,257
48415822,-2448,-348,14628,-127,331,85
48419205,-3008,-324,14996,49,91,327
48422415,-2352,-592,14732,-91,296,136
48425798,-2884,-376,15036,-101,157,177
48429268,-2576,-568,14812,-73,260,227
48432651,-2632,-488,14844,-129,213,109
48436146,-2744,-492,15196,13,252,227
48439418,-2804,-416,14864,63,138,249
48442714,-2616,-464,14952,-55,232,112
48446097,-2792,-492,14956,-36,266,244
48449481,-2632,-388,14856,44,188,178
48452777,-2716,-436,14848,-42,298,156
48456160,-2592,-456,15000,-40,119,227
48459544,-2644,-428,14976,-107,250,145
48463062,-2804,-568,14864,-103,222,181
48466484,-2760,-444,15152,-41,214,183
48469867,-2548,-452,14608,-46,304,154
48473250,-2860,-488,15184,-27,232,109
48476633,-2640,-496,14840,53,279,226
48479930,-2836,-380,14976,-95,270,13
48483226,-2692,-464,15012,21,215,311
48486546,-2632,-504,14880,-112,307,111
48489993,-2768,-460,15168,15,119,305
48493289,-2428,-344,14724,-112,250,168
48496795,-3076,-420,15344,-14,161,214
48500143,-2456,-604,14732,-31,251,240
48503526,-2836,-380,15040,-24,162,227
48506909,-2628,-440,14888,87,222,261
48510209,-2588,-500,14976,-81,274,55
48513527,-2852,-412,14932,63,146,267
48516799,-2576,-372,14612,-133,343,55
48520182,-2956,-300,15100,-42,167,237
48523565,-2656,-512,14904,-64,337,142
48526948,-2784,-436,14976,-2,124,246
48530245,-2644,-444,14944,-83,306,188
48533628,-2936,-360,15056,-47,175,194
48537036,-2444,-400,14516,-21,250,225
48540395,-2972,-548,15212,-15,244,236
48543778,-2432,-564,14784,77,140,267
48547074,-2648,-388,14836,-123,335,39
48550458,-2656,-420,14932,-3,166,197
48553754,-2736,-480,15056,-38,348,150
48557137,-2500,-464,15092,-21,117,258
48560581,-2724,-456,14992,-96,275,188
48563904,-2492,-468,15096,-104,158,183
48567374,-2764,-392,14836,-91,218,193
48570757,-2784,-444,15008,-6,251,167
48574054,-2720,-440,14848,60,193,214
48577350,-2572,-520,15128,-5,332,170
48580647,-2636,-284,14872,58,123,269
48583943,-2460,-584,14880,-144,390,80
48587350,-2880,-396,15308,13,99,327
48590536,-2252,-548,14764,-115,280,110
48594006,-3060,-268,15024,-129,203,151
48597511,-2300,-480,14504,-23,196,176
48600859,-2788,-488,15152,-139,325,85
48604243,-2528,-464,14876,55,145,223
48607539,-2592,-480,14904,-64,378,100
48610947,-2868,-452,15188,53,107,265
48614219,-2360,-480,14416,-83,353,40
48617515,-3084,-360,15356,-35,130,285
48620899,-2320,-548,14588,14,239,215
48624195,-3028,-352,15132,-95,257,201
48627578,-2436,-456,14868,41,109,254
48630875,-2616,-496,15004,-158,316,115
48634345,-2716,-452,15104,-58,150,184
48637753,-2864,-432,15096,28,294,219
48641025,-2596,-536,14852,-3,183,178
48644321,-2836,-508,15060,27,235,231
48647618,-2548,-536,14816,-30,201,175
48651001,-2908,-316,15076,-161,328,87
48654384,-2616,-408,14852,54,216,329
48657681,-2668,-528,14892,-127,251,34
48661112,-2780,-392,15148,-1,189,281
48664360,-2472,-420,14708,-138,300,57
48667744,-3060,-512,15228,-8,187,238
48671040,-2396,-484,14752,-48,215,188
48674423,-2724,-496,14960,-14,196,153
48677807,-2816,-420,15076,87,218,260
48681103,-2440,-536,14756,-89,258,56
48684400,-2688,-488,14928,-1,222,302
48687719,-2828,-272,15088,-45,163,173
48691079,-2584,-396,14800,-123,266,156
48694549,-3012,-340,15156,-117,274,112
48698054,-2544,-320,14948,-30,141,209
48701403,-2872,-524,15068,-59,333,125
48704786,-2760,-360,15052,71,76,324
48707996,-2688,-392,14852,-16,299,147
48711403,-2732,-448,14952,-5,136,258
48714675,-2400,-464,14720,-37,338,98
48717972,-2828,-396,14968,-62,244,215
48721355,-2488,-460,14748,-20,160,255
48724738,-2804,-364,15052,-135,307,93
48728122,-2664,-376,14976,-26,122,244
48731505,-2772,-532,14964,-152,430,12
48734892,-2864,-328,15132,53,27,370
48738122,-2424,-472,14896,-68,350,59
48741394,-2884,-476,15228,-11,184,204
48744778,-2408,-400,14728,42,286,171
48748074,-2936,-408,15136,-17,188,239
48751457,-2668,-352,14768,-86,296,39
48754754,-2992,-412,15164,5,140,372
48757964,-2188,-360,14528,-188,280,24
48761395,-3004,-416,15216,54,177,328
48764643,-2400,-436,14672,-97,198,133
48768027,-2868,-376,15008,-80,209,166
48771410,-2716,-484,14840,28,163,290
48774706,-2552,-528,14956,-107,336,44
48778090,-2676,-436,14836,137,169,366
48781473,-2484,-508,14636,-151,280,23
48784860,-2964,-376,15112,21,255,227
48788176,-2692,-380,14812,-57,193,170
48791536,-2744,-520,15184,10,236,240
48794832,-2516,-404,14912,-138,262,133
48798337,-2900,-380,15220,-94,196,165
48801686,-2516,-568,14868,-2,195,213
48804982,-2896,-408,14996,-29,128,250
48808365,-2512,-488,14800,97,250,262
48811686,-2692,-440,15004,5,158,168
48814872,-2528,-484,14784,-10,288,144
48818255,-2552,-468,14808,-162,239,112
48821725,-2992,-484,15220,48,98,290
48824935,-2384,-592,14852,-108,301,159
48828405,-3172,-328,15240,-120,219,125
48831875,-2524,-616,14920,7,288,186
48835088,-2976,-276,15076,-153,228,76
48838492,-2620,-372,14916,87,220,312
48841764,-2600,-388,14824,-96,236,178
48845147,-2860,-444,15180,176,83,354
48848444,-2228,-524,14608,-91,249,147
48851827,-2804,-372,15016,-45,165,192
48855210,-2476,-464,14780,-83,338,102
48858594,-2904,-324,15268,-31,167,221
48862025,-2700,-460,14788,-97,333,142
48865360,-2760,-556,15024,-75,176,162
48868743,-2688,-372,14852,-110,193,163
48872213,-2872,-472,15204,-61,309,118
48875597,-2688,-492,14936,57,121,278
48878893,-2632,-424,14892,-91,363,108
48882276,-2948,-420,14988,78,138,254
48885596,-2356,-536,14592,-93,341,75
48888869,-3220,-288,15344,-53,186,211
48892253,-2488,-576,14952,75,153,293
48895549,-2716,-396,14972,-167,262,93
48898967,-2612,-576,15088,24,127,239
48902229,-2652,-404,14844,-160,339,118
48905699,-2612,-444,15068,4,170,165
48908909,-2708,-504,15084,18,286,244
48912230,-2752,-516,15124,26,153,222
48915502,-2600,-444,14696,-15,354,134
48918885,-2712,-436,15028,-91,253,160
48922268,-2772,-376,14912,-44,182,195
48925651,-2616,-416,14948,-53,295,193
48929035,-2644,-460,14808,-65,176,164
48932418,-2896,-316,14820,-105,286,187
48935912,-2568,-504,14908,-68,252,125
48939271,-2844,-480,15176,10,243,247
48942568,-2740,-556,15016,19,250,164
48945864,-2772,-492,14920,4,198,204
48949074,-2452,-556,14876,-59,338,117
48952457,-3100,-356,15244,12,70,294
48955667,-2460,-472,14816,-97,310,173
48959050,-3100,-448,15136,-127,174,144
48962569,-2480,-576,14884,-25,255,184
48965903,-2820,-504,15036,-128,233,120
48969373,-2768,-404,15136,64,159,315
48972670,-2604,-400,14992,-110,389,13
48976053,-2992,-472,15224,89,117,299
48979350,-2412,-564,14680,-22,292,158
48982733,-3064,-500,15268,-62,186,143
48986139,-2352,-420,14548,30,198,370
48989413,-2720,-464,15072,-187,303,27
48992796,-2728,-440,14848,167,57,430
48996092,-2372,-364,14576,-248,398,-49
48999597,-2988,-348,15268,92,27,408
49002772,-2400,-488,14688,-119,315,135
49006242,-2820,-452,14976,-55,194,170
49009625,-2624,-476,14952,40,284,184
49012946,-2680,-344,14860,34,127,228
49016218,-2472,-464,14824,-55,391,21
49019515,-2988,-344,15172,-7,167,319
49022811,-2392,-420,14712,-121,283,78
49026195,-3124,-448,15280,-35,205,216
49029578,-2320,-564,14864,-87,216,120
49032961,-3072,-380,15196,-98,294,181
49036369,-2636,-492,15052,-30,172,173
49039728,-2672,-488,15136,-13,267,159
49043111,-2696,-348,14852,-63,232,134
49046494,-2816,-412,14972,51,138,251
49049791,-2520,-440,14852,-91,313,136
49053174,-2840,-448,15156,-12,217,178
49056557,-2620,-316,14824,-50,280,191
49059944,-2652,-484,14996,-85,201,140
49063426,-2792,-440,14996,0,202,233
49066533,-2624,-524,14880,-86,208,131
49069917,-2812,-448,15128,-2,211,263
49073213,-2520,-352,14720,-95,326,116
49076596,-2916,-432,15204,74,144,220
49079893,-2420,-404,14680,1,257,226
49083103,-2744,-436,15060,-75,280,10
49086422,-2444,-600,14840,-108,289,158
49089869,-3320,-404,15316,-28,149,225
49093252,-2340,-488,14832,-120,255,141
49096722,-3020,-420,15128,-156,324,114
49100231,-2616,-420,14964,-55,136,202
49103576,-2696,-424,15088,-52,353,127
49106959,-2744,-388,14964,-8,140,182
49110280,-2660,-416,14976,30,209,179
49113552,-2776,-368,15056,-16,234,220
49116935,-2704,-416,14828,10,219,132
49120232,-2556,-576,14868,-125,387,45
49123615,-2728,-388,14932,66,21,424
49126825,-2524,-456,14904,-41,359,93
49130121,-2768,-516,15132,-75,104,268
49133504,-2624,-528,14976,-162,358,36
49136912,-2960,-508,15320,-5,128,297
49140184,-2492,-456,14692,-60,249,127
49143567,-2848,-436,15084,1,242,213
49146777,-2476,-472,14928,11,219,164
49150074,-2680,-344,14792,-58,346,131
49153457,-2684,-312,14880,-147,265,77
49156840,-2896,-436,15144,114,155,361
49160227,-2456,-404,14600,-154,311,52
49163655,-2856,-492,15092,64,135,315
49166903,-2468,-512,14848,-133,235,96
49170286,-2900,-512,15120,-21,165,195
49173670,-2560,-336,14864,-56,239,222
49177053,-2664,-572,14996,19,211,142
49180349,-2604,-496,14904,74,221,327
49183646,-2352,-372,14660,-158,340,-50
49187139,-3200,-356,15424,149,56,404
49190412,-2296,-380,14364,-143,292,43
49193796,-3000,-484,15352,-37,265,161
49197179,-2256,-484,14512,-46,258,228
49200597,-2848,-380,15096,-154,254,24
49203945,-2868,-472,15084,122,130,360
49207329,-2272,-528,14596,-187,302,-35
49210823,-3308,-440,15412,58,281,219
49214095,-2340,-584,14720,-41,231,157
49217478,-2896,-428,15072,-102,301,54
49220862,-2736,-352,14976,-55,247,224
49224245,-2688,-472,14788,-137,202,122
49227715,-2964,-372,15340,-6,209,281
49231011,-2316,-500,14712,-154,235,70
49234395,-3024,-352,15288,-14,243,247
49237802,-2292,-608,14652,-90,330,51
49241074,-3024,-576,15496,-11,198,208
49244458,-2476,-400,14640,68,119,309
49247754,-2548,-516,14580,-115,379,-4
49251137,-2664,-468,14916,41,217,341
49254434,-2608,-284,14628,-143,278,43
49257817,-2900,-536,15324,103,152,335
49261249,-2396,-412,14412,-100,207,119
49264670,-3052,-392,15392,-86,293,111
49268054,-2296,-432,14816,-65,250,216
49271437,-2872,-412,15168,-114,293,58
49274820,-2588,-428,15016,71,262,264
49278117,-3080,-300,15148,-25,206,172
49281500,-2328,-572,14816,79,255,257
49284800,-2748,-444,14964,-148,198,180
49288290,-2664,-436,14760,6,276,152
49291476,-2808,-372,15076,-128,232,135
49294946,-2584,-452,14960,52,134,246
49298243,-2556,-436,14840,-148,362,97
49301661,-2880,-312,15020,-38,110,259
49305009,-2568,-412,14868,-23,320,128
49308392,-2628,-528,15056,-42,169,213
49311800,-2532,-452,14904,48,301,164
49315072,-2724,-524,15044,-42,190,139
49318455,-2756,-376,14868,-22,291,154
49321839,-2800,-516,15060,-56,232,225
49325222,-2608,-436,14900,-68,232,125
49328605,-2732,-388,15060,-52,302,178
49331988,-2728,-548,15112,-11,94,246
49335309,-2552,-376,14840,-27,322,169
49338668,-2760,-440,15080,-4,146,224
49341965,-2624,-552,14900,8,222,245
49345174,-2732,-336,14912,-31,215,176
49348558,-2720,-460,14984,51,239,221
49351854,-2456,-492,14792,-141,376,62
49355237,-2904,-488,14960,-95,249,138
49358621,-2600,-484,15096,23,249,239
49361966,-2772,-468,14960,-31,85,262
49365214,-2576,-572,14760,-92,319,76
49368510,-2756,-476,15016,-92,150,237
49371893,-2652,-484,14860,17,263,156
49375190,-2696,-564,14972,-59,241,178
49378573,-2720,-392,14992,-39,210,147
49381956,-2692,-500,14772,49,198,286
49385276,-2608,-408,14840,-150,327,8
49388549,-2964,-424,15248,47,165,365
49391846,-2280,-492,14864,-47,212,120
49395229,-2900,-260,15076,-55,307,168
49398612,-2652,-604,14964,-33,261,170
49402031,-2940,-344,15256,-124,235,110
49405466,-2620,-440,14892,1,267,232
49408675,-2652,-480,14968,-42,192,123
49412083,-2628,-572,14948,49,223,272
49415355,-2768,-496,14912,-59,254,111
49418738,-2456,-448,14644,14,198,287
49422035,-2824,-344,14940,-240,379,-87
49425133,-1,-1,-1,-1,-1,-1
49427934,-2212,-608,14536,-103,304,39
49431317,-3044,-332,15260,-72,211,228
49434700,-2232,-388,14616,-154,331,79
49438108,-3088,-224,15108,-59,194,175
49441467,-2440,-516,14636,-9,341,141
49444763,-3252,-300,15156,-65,230,88
49448060,-2588,-520,15124,190,113,438
49451443,-2376,-404,14676,-186,343,-10
49454913,-2960,-404,15136,20,147,272
49458210,-2372,-556,14600,-109,238,202
49461728,-3080,-420,15396,18,132,250
49464976,-2340,-484,14540,-65,271,240
49468359,-2936,-308,14864,-104,165,169
49471829,-2552,-420,15024,64,239,239
49475126,-2708,-472,14808,-168,256,37
49478509,-2836,-444,15236,123,145,286
49481892,-2584,-552,14752,-101,302,90
49485299,-2824,-420,15060,77,124,244
49488572,-2580,-392,14820,-85,344,105
49491955,-2688,-476,14988,-57,153,214
49495339,-2720,-496,15032,18,200,231
49498635,-2556,-488,14844,-130,243,124
49502140,-2852,-420,14960,-70,201,194
49505488,-2728,-432,14940,-90,323,117
49508872,-2752,-460,15124,0,199,185
49512106,-2764,-440,15084,19,300,191
49515378,-2572,-464,14844,-13,170,172
49518761,-2596,-504,15068,-48,339,116
49522144,-2884,-384,15012,-77,183,154
49525528,-2380,-564,14972,-66,267,83
49528824,-3020,-188,15108,-33,170,306
49532207,-2272,-424,14552,-169,275,54
49535615,-3176,-276,15204,-19,258,201
49538974,-2428,-536,14924,52,54,326
49542184,-2620,-488,14968,-45,326,103
49545567,-2736,-452,14884,59,104,295
49548863,-2456,-476,14628,-48,357,64
49552160,-2800,-464,15016,-100,280,145
49555630,-2828,-372,14932,-75,221,163
49559013,-2956,-476,15368,29,123,349
49562370,-2484,-532,14796,-141,277,15
49565693,-2884,-420,15132,-25,245,236
49569076,-2388,-624,14652,-63,130,205
49572459,-2884,-352,15084,-6,264,161
49575756,-2520,-588,14896,-9,147,285
49579052,-2688,-332,15016,-31,304,105
49582436,-2516,-500,14892,50,318,184
49585755,-2668,-296,14828,-52,223,136
49589115,-2808,-464,14980,-24,265,218
49592499,-2580,-532,15004,-97,116,228
49595882,-2720,-496,14916,-77,374,58
49599178,-2736,-544,15124,-38,170,217
49602597,-2656,-444,14920,-60,264,150
49605945,-2788,-456,15160,19,188,250
49609241,-2480,-452,14736,-17,256,99
49612562,-2988,-392,15156,13,220,276
49615834,-2496,-556,14812,11,137,233
49619131,-2816,-432,14812,-27,294,193
49622514,-2404,-416,14740,-95,218,117
49625897,-3008,-384,15116,-16,249,260
49629281,-2452,-472,14712,-91,281,101
49632664,-2804,-436,15024,-81,218,177
49636072,-2680,-480,15012,-49,267,189
49639430,-2756,-484,15040,-84,230,104
49642814,-2624,-476,15028,-8,257,256
49646110,-2640,-432,14716,-102,232,76
49649493,-2784,-384,14816,119,219,319
49652877,-2320,-452,14676,-141,348,-48
49656347,-2704,-524,14992,108,-23,512
49659733,-2412,-344,14564,-250,452,-110
49663335,-2688,-564,15084,120,-20,416
49666670,-2244,-340,14416,-146,357,110
49670140,-2984,-380,15256,20,126,287
49673436,-2300,-572,14728,31,274,162
49676733,-2648,-540,15088,-143,219,132
49680203,-2828,-476,14924,-16,194,187
49683586,-2572,-348,14920,-52,238,228
49686993,-2808,-352,14852,-28,133,245
49690357,-2576,-436,14808,-8,321,156
49693649,-2768,-404,15000,-85,163,196
49697032,-2672,-420,15044,-5,248,176
49700329,-2784,-536,14988,-139,255,119
49703834,-2764,-552,15144,-10,122,246
49707182,-2800,-520,14976,-62,291,138
49710590,-2512,-560,14832,-62,193,147
49713949,-2840,-444,14900,65,270,222
49717245,-2540,-344,14840,19,153,187
49720542,-2596,-516,14872,-73,402,54
49723838,-2920,-336,15116,-35,169,223
49727221,-2656,-460,14988,-98,285,135
49730605,-2832,-408,15104,35,30,385
49733814,-2356,-400,14616,-186,295,44
49737222,-2992,-284,15232,8,222,263
49740407,-2416,-600,14724,-49,228,167
49743791,-2836,-452,15296,75,256,279
49747087,-2672,-516,14844,-67,251,91
49750384,-2812,-408,15084,103,205,330
49753767,-2524,-584,14880,-122,281,85
49757150,-2624,-376,14784,-83,250,188
49760582,-2740,-548,15124,-143,210,145
49764003,-2576,-604,14800,-45,173,188
49767387,-2752,-568,14992,-103,296,149
49770857,-2680,-476,14948,-57,204,140
49774240,-2756,-388,15156,21,240,242
49777536,-2380,-500,14736,-29,181,152
49780920,-2876,-516,15276,37,229,172
49784216,-2640,-384,14860,-11,183,239
49787622,-2660,-504,15164,-19,220,134
49790983,-2612,-444,14852,-55,296,197
49794366,-2804,-504,15120,-136,261,90
49797749,-2784,-420,15024,69,195,340
49801046,-2708,-380,14856,-132,249,88
49804464,-2724,-412,15120,65,145,314
49807725,-2520,-304,14684,-200,344,82
49811133,-2868,-496,15224,84,119,244
49814405,-2476,-400,14596,-56,208,232
49817788,-3040,-228,15224,50,205,174
49821085,-2244,-512,14672,25,286,225
49824381,-3028,-300,15088,-73,252,68
49827678,-2524,-532,14864,-50,246,200
49831061,-3004,-248,15000,-165,270,46
49834444,-2576,-488,14920,52,136,355
49837765,-2816,-376,15032,-154,342,112
49841211,-2648,-544,15020,54,104,292
49844507,-2488,-556,14744,13,346,115
49847804,-2784,-348,15044,22,103,293
49851100,-2472,-516,14700,-30,390,42
49854397,-2852,-384,14980,-89,206,126
49857780,-2668,-532,14924,-38,306,152
49861212,-2736,-420,15012,-60,160,218
49864547,-2432,-516,14768,-73,240,151
49867930,-2868,-392,14992,-148,251,178
49871400,-2636,-440,14828,-40,121,231
49874783,-2752,-524,15108,-20,345,129
49878166,-2412,-604,15024,0,148,263
49881376,-2888,-304,15060,-20,295,129
49884763,-2660,-556,14812,13,193,257
49888079,-2648,-392,14860,-105,282,61
49891439,-2632,-500,15172,-16,302,176
49894822,-2696,-392,15016,-122,167,184
49898292,-2760,-432,14992,-1,255,234
49901589,-2612,-624,14996,-134,243,86
49905007,-2780,-384,14988,23,189,267
49908269,-2688,-584,14840,-125,240,126
49911763,-2764,-516,15048,60,166,262
49915035,-2756,-392,14832,34,258,225
49918332,-2632,-368,14916,8,156,196
49921541,-2528,-456,14748,-8,334,151
49924838,-2976,-364,14944,-169,267,53
49928221,-2488,-576,14860,37,173,313
49931518,-2756,-472,14916,-108,206,194
49934991,-2664,-352,14852,-15,221,185
49938395,-2716,-388,15020,-57,288,189
49941754,-2700,-476,15072,-52,119,269
49945137,-2552,-532,14936,-38,325,161
49948521,-2772,-512,14928,23,134,246
49951817,-2552,-512,14800,71,281,183
49955114,-2768,-384,14972,-21,238,169
49958497,-2552,-420,14532,-118,247,117
49962016,-2948,-400,15124,-135,278,143
49965437,-2396,-452,14736,-46,92,284
49968733,-2736,-540,14956,-182,391,49
49972117,-2784,-480,15076,96,39,363
49975326,-2440,-600,14932,-48,329,65
49978623,-2660,-444,15076,26,163,233
49981919,-2568,-452,14872,23,291,174
49985239,-2860,-392,14904,-66,279,174
49988599,-2488,-380,14852,4,173,185
49991809,-2860,-384,14800,-147,317,105
49995279,-2592,-488,14904,-46,173,171
49998662,-3024,-336,15116,-47,295,181
50002045,-2540,-460,14940,67,81,317
50005290,-2520,-396,14644,-113,318,78
50008638,-2748,-476,15136,19,102,292
50011959,-2404,-368,14620,-112,294,95
50015318,-2876,-552,15136,92,244,208
50018615,-2440,-532,14816,-27,191,187
50021998,-2740,-440,14972,-115,347,95
50025381,-2608,-496,14812,8,108,305
50028591,-2432,-584,14708,-118,364,51
50031974,-3148,-300,15184,-13,68,316
50035295,-2300,-424,14672,-163,312,61
50038654,-3084,-364,15276,-124,261,173
50042124,-2416,-500,14820,-79,216,131
50045507,-3024,-504,15504,-4,301,175
50048804,-2456,-456,14600,69,130,249
50052100,-2804,-436,15128,32,305,178
50055397,-2392,-584,14960,-55,141,278
50058780,-2776,-484,15088,-118,404,-3
50062265,-2424,-680,14768,29,135,366
50065460,-2808,-420,14888,-122,311,22
50068843,-2856,-464,15188,-16,138,320
50072226,-2668,-428,15020,-148,241,34
50075609,-2808,-424,15152,30,212,284
50078906,-2504,-576,14928,-120,228,91
50082289,-2740,-344,14984,98,158,332
50085609,-2480,-472,14828,-15,272,82
50088882,-2900,-384,14988,-22,226,229
50092265,-2708,-332,14808,-82,304,135
50095649,-2520,-384,14716,-92,192,212
50099032,-2892,-436,15244,-4,266,216
50102328,-2384,-476,14756,-55,137,195
50105751,-3032,-468,15352,-85,361,99
50109008,-2780,-428,15004,3,171,291
50112242,-2688,-420,14832,-131,399,-24
50115688,-3048,-340,15316,92,86,338
50118898,-2320,-608,14608,-103,337,-6
50122281,-2936,-424,15196,60,178,375
50125577,-2336,-316,14672,-70,242,145
50128961,-2852,-460,15164,12,281,188
50132257,-2628,-376,14740,6,158,187
50135491,-2704,-420,14856,-84,312,183
50138850,-2720,-492,15004,-111,210,232
50142320,-2544,-416,14812,-73,249,136
50145703,-2860,-436,15196,-50,190,210
50149087,-2708,-500,14900,74,125,237
50152383,-2260,-472,14768,-103,373,91
50155766,-2984,-356,15268,3,218,135
50158976,-2420,-512,14816,-63,273,147
50162408,-2972,-464,15168,-99,208,178
50165743,-2532,-476,14952,45,173,269
50169039,-2684,-356,14960,-124,309,165
50172509,-2528,-552,14924,-70,155,186
50175892,-2664,-460,15016,-25,277,196
50179276,-2632,-452,15012,18,135,226
50182572,-2624,-572,14884,-23,381,88
50185892,-3084,-452,15448,170,91,385
50189165,-2144,-384,14304,-85,345,36
50192462,-2944,-352,15204,-178,281,97
50195845,-2612,-468,14748,-21,109,248
50199228,-2776,-392,15108,-222,410,24
50202611,-2972,-356,15148,89,-4,395
50205856,-2204,-444,14496,-170,429,-46
50209291,-2976,-476,15484,46,130,259
50212612,-2456,-428,14692,20,290,185
50215884,-2976,-368,15072,5,203,215
50219094,-2316,-592,14880,115,146,281
50222477,-2728,-392,14964,-179,347,52
50225860,-2788,-476,15128,15,97,296
50229070,-2568,-408,14820,-222,519,-67
50232540,-3136,-492,15356,12,26,379
50235774,-2260,-596,14520,-140,331,41
50239133,-3064,-452,15328,-4,124,290
50242430,-2412,-536,14792,3,227,225
50245639,-3008,-360,15268,3,234,232
50248849,-2352,-472,14884,15,180,156
50252146,-2800,-392,14984,-107,292,159
50255616,-2692,-364,14864,-41,250,113
50258999,-2552,-412,14924,-70,267,146
50262430,-2916,-300,15088,-84,271,110
50265765,-2644,-544,15096,50,116,270
50269062,-2640,-488,15036,-182,342,74
50272445,-2908,-324,15152,52,81,327
50275655,-2360,-516,14824,-76,346,88
50278951,-2748,-444,15076,-31,103,225
50282335,-2644,-468,14912,26,293,187
50285654,-2676,-384,14964,-31,213,163
50289014,-2756,-392,15028,24,246,197
50292311,-2536,-348,14956,-107,211,142
50295781,-2988,-404,15292,-57,184,195
50299164,-2508,-452,14824,-93,192,217
50302547,-2832,-416,14984,-77,186,189
50305965,-2644,-528,14880,-72,294,160
50309314,-2800,-508,15108,-4,159,192
50312635,-2540,-484,14960,-11,267,146
50315994,-2980,-352,15220,24,181,192
50319290,-2588,-540,14720,43,230,244
50322587,-2640,-472,14892,-90,327,103
50325970,-2672,-348,14904,-58,216,141
50329353,-2620,-484,15064,-72,232,248
50332736,-2920,-436,15132,-43,185,182
50336144,-2620,-480,14848,14,261,254
50339416,-2608,-432,14928,-161,283,70
50342799,-2708,-444,15136,40,141,299
50346096,-2496,-456,14832,-59,231,165
50349479,-2896,-468,15008,15,165,202
50352776,-2504,-476,14732,15,279,212
50356072,-2724,-380,14756,-124,275,42
50359455,-2872,-464,15044,92,204,338
50362800,-2780,-472,14940,-195,239,83
50366135,-2644,-460,14936,7,225,294
50369345,-2584,-512,14884,-168,284,86
50372728,-2824,-400,15016,47,88,364
50375938,-2536,-488,14804,-165,341,3
50379234,-3044,-356,15124,64,154,288
50382531,-2376,-452,14976,-5,367,96
50385764,-2880,-468,15040,-28,133,201
50389124,-2452,-512,14700,9,236,244
50392334,-2772,-372,14832,-149,244,100
50395804,-2732,-456,14800,-48,260,189
50399187,-2828,-444,15048,-26,154,210
50402570,-2572,-400,14836,-41,202,159
50405992,-2808,-364,15068,-75,207,249
50409337,-2576,-352,14812,-69,196,130
50412744,-2732,-564,14980,-36,359,119
50416103,-2836,-436,15076,26,109,300
50419400,-2620,-324,15024,78,256,172
50422696,-2672,-428,14968,-58,222,170
50426079,-2320,-420,14508,-45,290,120
50429463,-3244,-196,15100,-126,235,206
50432933,-2340,-552,14824,-7,125,261
50436254,-2884,-424,15048,-26,245,221
50439612,-2564,-476,14764,-7,149,222
50442909,-2668,-404,14976,-85,356,111
50446292,-2924,-520,15128,37,116,287
50449589,-2552,-472,14788,-20,301,136
50452972,-3028,-352,15140,-2,170,269
50456268,-2236,-620,14584,-64,290,29
50459565,-2868,-404,15128,-138,334,84
50462997,-2704,-288,14872,84,132,355
50466245,-2556,-496,14844,-58,383,67
50469541,-2804,-364,15116,16,35,343
50472751,-2536,-592,14760,-80,342,91
50476047,-2780,-384,15172,-73,152,208
50479431,-2472,-468,14752,-31,198,189
50482814,-2860,-396,15120,-12,280,146
50486220,-2640,-620,14900,18,151,210
50489494,-2500,-260,14596,-12,322,181
50492877,-2748,-484,15036,-179,286,1
50496173,-2888,-352,15076,30,201,309
50499470,-2640,-532,15064,-148,272,82
50502853,-2840,-448,14964,98,142,345
50506185,-2388,-620,14808,-123,359,22
50509533,-2896,-444,15164,-19,124,266
50512941,-2420,-492,14788,-68,335,127
50516299,-2768,-400,15176,-10,135,282
50519683,-2636,-340,14868,97,169,311
50522979,-2572,-380,14724,-134,312,3
50526276,-3072,-344,15140,23,130,292
50529572,-2332,-452,14740,-102,331,94
50532955,-2940,-544,15024,-91,219,192
50536363,-2500,-608,14756,0,247,247
50539548,-2752,-384,15088,-207,243,69
50542932,-2676,-340,14976,11,232,293
50546228,-2796,-360,15024,-93,253,105
50549611,-2712,-616,14912,85,160,348
50552908,-2560,-516,14864,-11,209,168
50556291,-2796,-460,15032,-77,218,127
50559678,-2516,-504,14864,-9,301,144
50563032,-2728,-308,14860,-128,217,124
50566441,-2900,-480,15216,49,240,251
50569737,-2520,-508,14792,-67,107,253
50573121,-2816,-380,14864,-94,210,164
50576504,-2644,-516,14812,-60,213,254
50579887,-2740,-464,14816,-58,237,135
50583270,-2748,-444,15120,77,237,297
50586590,-2472,-404,14788,-24,218,178
50589950,-2980,-396,15124,65,224,241
50593247,-2204,-588,14640,-50,192,164
50596630,-3032,-292,14972,-202,396,16
50600013,-2760,-568,15200,45,161,345
50603310,-2668,-420,14680,-188,328,6
50606641,-2984,-436,15184,15,161,328
50609906,-2308,-412,14692,-130,213,100
50613397,-2992,-448,15252,-7,330,161
50616669,-2688,-548,14852,46,83,334
50619879,-2636,-520,14828,-33,356,80
50623175,-2712,-404,15032,78,68,359
50626385,-2312,-404,14464,-83,326,91
50629682,-2880,-452,15168,-164,265,95
50633065,-2688,-524,15012,35,172,198
50636386,-2624,-436,14896,-103,268,149
50639831,-2792,-436,15096,-7,161,176
50643128,-2648,-508,14976,-57,266,207
50646511,-2796,-436,15028,-4,133,249
50649808,-2576,-532,14956,-43,274,120
50653191,-2724,-384,15012,66,146,296
50656487,-2464,-440,14672,-87,327,71
50659787,-2888,-412,15040,-7,262,199
50663129,-2592,-440,14804,-121,214,129
50666550,-2808,-628,15048,-18,266,239
50669934,-2692,-376,14736,-58,165,212
50673317,-2636,-508,15100,-16,267,151
50676700,-2740,-384,14968,-82,224,203
50680083,-2640,-368,15016,-98,253,113
50683467,-2668,-384,15092,-20,257,196
50686873,-2660,-440,14820,-26,174,131
50690233,-2720,-468,15088,7,320,159
50693443,-2528,-424,14764,-33,198,167
50696826,-2868,-408,14884,-42,271,230
50700209,-2776,-456,14972,-59,191,155
50703593,-2796,-484,15044,63,188,312
50706924,-2744,-520,14924,-159,294,76
50710297,-2696,-456,14840,-53,163,230
50713656,-2572,-464,14896,-51,327,121
50717039,-2708,-636,15092,3,130,267
50720249,-2644,-388,14716,27,317,167
50723545,-2868,-316,15092,58,152,251
50726842,-2428,-400,14592,-62,334,70
50730138,-3000,-332,15088,-71,186,193
50733521,-2464,-536,14984,-6,226,199
50736842,-2880,-448,15044,-73,263,182
50740201,-2596,-420,14896,-26,153,230
50743584,-2652,-352,14852,-80,273,168
50746968,-2792,-304,14908,-40,180,195
50750351,-2684,-500,14944,-22,334,122
50753734,-2928,-332,15040,-2,182,253
50757031,-2564,-464,14944,68,265,168
50760375,-2608,-472,14828,-98,254,151
50763710,-2880,-332,15148,-37,158,242
50767094,-2316,-604,14812,13,262,231
50770390,-2860,-364,15120,-200,267,38
50773773,-2364,-456,14832,52,190,327
50777070,-2508,-404,14708,-201,299,-16
50780540,-3144,-492,15332,138,62,403
50783836,-2248,-560,14712,-159,329,36
50787243,-3064,-364,15252,102,155,243
50790603,-2248,-556,14600,-111,379,36
50793986,-3244,-408,15360,-63,191,151
50797369,-2576,-492,14704,29,229,256
50800666,-2796,-448,15300,-137,216,122
50804136,-2700,-456,14752,94,141,383
50807467,-2316,-520,14800,-211,350,-7
50810840,-2768,-468,15032,37,130,303
50814112,-2560,-444,14780,-109,288,130
50817582,-2804,-656,15224,54,122,275
50820879,-2540,-524,14800,13,361,136
50824175,-2700,-456,15072,-40,207,137
50827558,-2868,-472,14984,78,201,284
50830855,-2672,-448,14736,-245,346,-8
50834238,-2996,-572,15408,85,120,394
50837559,-2460,-504,14572,-201,386,39
50840918,-3028,-528,15292,-6,119,271
50844214,-2264,-440,14680,-85,296,163
50847598,-3048,-400,15316,-20,182,206
50850981,-2392,-596,14700,41,280,211
50854277,-2832,-400,15040,-7,225,221
50857574,-2284,-620,14608,55,186,196
50860919,-2924,-340,14828,-136,320,102
50864340,-2664,-496,14884,-50,198,157
50867724,-2956,-500,15180,-48,271,198
50871107,-2476,-624,14808,-69,186,166
50874490,-3048,-484,15152,-9,178,255
50877787,-2448,-588,14884,-26,189,209
50881170,-2872,-308,15004,-117,305,58
50884553,-2532,-680,14884,-6,270,205
50887873,-2896,-364,15052,-1,187,187
50891146,-2472,-500,14872,81,220,273
50894443,-2924,-412,15072,-168,291,20
50897826,-2728,-468,14980,103,190,368
50901209,-2460,-504,14964,-158,301,103
50904679,-2764,-432,15056,61,120,305
50908011,-2492,-524,14776,-184,309,45
50911383,-2684,-620,15184,43,106,307
50914655,-2720,-584,15032,-75,313,160
50918039,-2808,-484,15040,21,108,233
50921335,-2468,-376,14632,-28,300,114
50924718,-3016,-432,15180,24,211,243
50928015,-2140,-444,14552,67,175,241
50931311,-3012,-260,14996,-137,343,164
50934785,-2240,-512,14712,48,51,331
50938016,-2748,-396,14976,-255,372,32
50941374,-2572,-564,14660,-42,86,268
50944671,-2748,-404,14968,-47,378,92
50947967,-2784,-484,15056,36,130,254
50951264,-2412,-472,14860,-90,335,38
50954560,-3160,-412,15328,83,172,291
50957857,-2176,-376,14508,12,214,194
50961203,-2956,-360,15088,-34,290,154
50964537,-2760,-460,14796,-58,158,178
50967920,-2740,-400,15024,-51,291,186
50971303,-2752,-464,14944,-81,180,160
50974686,-2784,-460,15052,-33,200,260
50978070,-2556,-508,14900,-83,281,146
50981453,-2640,-588,15180,25,136,246
50984753,-2684,-436,14900,-46,305,129
50988156,-2836,-384,15040,35,150,238
50991429,-2464,-568,14820,44,330,152
50994726,-2784,-340,15024,-121,242,43
50998109,-2856,-380,15020,26,186,268
51001405,-2544,-536,14704,-114,176,231
51004875,-2812,-420,15052,-44,229,181
51008294,-2636,-560,14844,2,282,217
51011493,-2760,-456,15060,-50,167,176
51014852,-2644,-448,15076,22,307,198
51018148,-2552,-504,15040,-19,152,194
51021531,-2672,-352,14780,2,294,179
51024741,-2688,-500,15024,9,153,249
51027951,-2444,-476,14648,-176,332,3
51031247,-2856,-424,15180,-38,192,260
51034634,-2684,-412,14976,6,169,247
51037865,-2616,-408,14736,-101,343,131
51041310,-2812,-492,15064,6,150,239
51044520,-2580,-416,14768,-29,283,241
51047903,-2632,-456,14860,-58,206,109
51051287,-2620,-500,14868,65,246,271
51054583,-2876,-420,14988,-35,208,128
51057966,-2584,-560,14780,3,220,144
51061279,-2960,-236,14928,-38,245,186
51064559,-2536,-508,14832,-110,225,173
51068029,-2920,-232,15084,-9,192,291
51071326,-2324,-508,14672,-105,218,139
51074796,-2960,-364,15340,42,131,251
51078092,-2412,-468,14964,-107,272,148
51081562,-2880,-404,15104,8,234,161
51084776,-2488,-476,14980,-5,331,132
51088092,-2984,-364,15024,-19,128,230
51091452,-2284,-436,14680,20,285,173
51094748,-2920,-392,15076,-20,154,218
51098132,-2200,-468,14456,-26,243,237
51101515,-3076,-312,15124,-174,269,93
51104898,-2736,-548,15184,0,164,212
51108111,-2736,-344,14924,-213,316,112
51111625,-2804,-472,15004,53,153,236
51114874,-2564,-464,14836,-49,332,108
51118258,-2868,-472,15040,37,139,274
51121554,-2596,-528,14840,-3,291,201
51124851,-2664,-472,15140,-44,252,105
51128234,-2740,-456,14888,22,207,219
51131530,-2620,-396,14824,-200,302,64
51134917,-2820,-412,15156,47,76,332
51138148,-2484,-396,14668,-85,311,166
51141507,-2736,-532,15008,-101,210,150
51144977,-2808,-468,15236,8,220,192
51148186,-2572,-524,14948,-32,198,260
51151570,-2584,-424,15120,11,270,151
51154866,-2748,-460,15036,-18,272,225
51158249,-2628,-488,14980,25,176,193
51161594,-2556,-548,14740,-47,335,76
51164842,-2608,-472,14992,-95,202,158
51168226,-2984,-432,15300,33,243,207
51171522,-2568,-608,14920,-81,149,199
51174905,-3000,-504,15188,-90,206,153
51178289,-2652,-420,14964,36,166,372
51181585,-2424,-456,14508,-155,249,8
51184885,-3000,-284,15288,104,179,350
51188289,-2332,-376,14760,3,202,132
51191475,-3076,-384,15052,-99,347,82
51194771,-2408,-464,14392,19,159,256
51198068,-2568,-392,14884,-254,432,-96
51201538,-3200,-332,15476,115,67,497
51204834,-2372,-396,14696,-226,328,-67
51208304,-3040,-432,15496,-2,216,303
51211642,-2228,-448,14788,-94,283,39
51214897,-3016,-356,15148,-5,249,225
51218194,-2624,-440,14832,23,161,225
51221490,-2684,-436,14992,-44,203,157
51224873,-2500,-480,14960,-22,289,164
51228257,-2952,-356,14900,-68,220,143
51231640,-2696,-456,14796,-35,309,199
51235027,-2600,-448,14972,-44,138,233
51238431,-2792,-412,15140,-21,217,231
51241790,-2600,-484,14956,-65,194,211
51245173,-2584,-468,14912,-115,294,120
51248643,-2700,-408,15024,38,192,311
51251939,-2372,-536,14820,-122,292,10
51255323,-3144,-380,15300,104,219,301
51258706,-2196,-492,14592,-83,296,0
51261964,-3120,-408,15140,-2,229,252
51265212,-2392,-508,14668,-43,214,133
51268595,-2984,-504,15136,-71,183,238
51271979,-2492,-456,14908,-79,194,247
51275362,-2784,-592,15016,-28,199,143
51278745,-2764,-604,15076,15,262,213
51282042,-2684,-380,14972,-42,176,171
51285449,-2648,-436,15044,20,286,214
51288726,-2716,-384,14808,-47,230,80
51292018,-2636,-544,14924,28,226,269
51295314,-2748,-436,14996,8,211,238
51298524,-2300,-472,14540,-159,323,1
51301821,-2992,-304,15448,27,135,349
51305117,-2324,-404,14580,-51,226,138
51308500,-3044,-448,15336,13,188,304
51311839,-2352,-564,14680,-77,207,145
51315180,-2992,-400,15116,-63,299,137
51318563,-2388,-572,14884,-17,191,181
51321947,-2676,-516,15068,-6,303,97
51325156,-2560,-644,14984,-1,201,187
51328453,-2572,-440,14836,-61,207,138
51331836,-2936,-340,15072,-82,253,207
51335244,-2556,-420,14924,-70,159,205
51338603,-2804,-324,14924,-67,263,180
51341986,-2704,-344,14872,5,118,276
51345196,-2512,-520,14916,-71,250,91
51348492,-2752,-392,15024,-33,258,208
51351875,-2676,-556,15108,14,219,172
51355172,-2768,-464,14864,46,196,293
51358468,-2680,-400,15008,-74,253,87
51361813,-2672,-476,14868,11,224,291
51365061,-2632,-244,14776,-135,254,43
51368445,-2860,-344,14880,44,214,261
51371741,-2528,-524,14924,-64,243,140
51375124,-2756,-364,14944,-66,127,256
51378508,-2616,-408,15076,-123,339,86
51381891,-2748,-332,14932,-81,166,203
51385299,-2800,-412,14908,8,329,192
51388484,-2444,-536,14864,95,125,259
51391780,-2832,-428,14980,-30,340,100
51395164,-2652,-452,14936,29,163,238
51398460,-2772,-400,14940,-124,365,11
51401471,-1,-1,-1,-1,-1,-1
51404272,-2440,-496,14552,-127,329,94
51407656,-3036,-284,15248,-73,142,250
51411062,-2324,-612,14528,-141,290,46
51414457,-2900,-404,15116,-25,215,251
51417805,-2440,-484,14888,-2,205,166
51421102,-2904,-424,15088,72,290,254
51424398,-2572,-360,14916,7,180,175
51427608,-2544,-576,14956,-22,288,216
51430991,-2816,-292,14900,-104,228,159
51434461,-2640,-464,14804,-60,217,161
51437869,-2784,-488,15036,-166,194,148
51441315,-2680,-388,14852,-46,174,178
51444698,-2632,-432,15128,-24,255,220
51448081,-2556,-524,14776,-52,243,107
51451464,-2992,-512,15220,77,203,231
51454761,-2436,-496,14832,-11,212,190
51458144,-2880,-360,15032,0,185,253
51461402,-2604,-352,14884,-48,252,187
51464365,-1,-1,-1,-1,-1,-1
51466794,-1,-1,-1,-1,-1,-1
51469595,-2700,-512,14920,-39,277,194
51472978,-2744,-348,14972,-129,282,170
51476448,-2824,-432,15068,0,140,234
51479658,-2488,-504,14880,-138,302,139
51483128,-2904,-452,15120,22,132,249
51486449,-2572,-444,14640,-109,339,113
51489895,-2976,-428,15396,112,116,352
51493278,-2192,-524,14576,-64,343,37
51496574,-3160,-428,15336,-74,208,163
51499958,-2512,-372,14692,-89,230,100
51503341,-3236,-268,15260,-89,278,213
51506724,-2408,-596,14828,-10,66,296
51510024,-2784,-392,14880,-141,280,119
51513514,-2516,-612,14784,108,52,376
51516822,-2516,-448,14656,-92,292,62
51520084,-2748,-424,14892,138,83,445
51523380,-2260,-512,14508,-171,345,-30
51526850,-3184,-396,15312,108,191,305
51530233,-2268,-500,14500,-72,270,92
51533530,-2892,-436,15288,-91,313,143
51536938,-2708,-352,14828,-91,159,241
51540296,-2812,-484,15064,-116,304,67
51543680,-2692,-460,15152,7,61,364
51546803,-2512,-408,14656,-157,276,62
51550186,-2908,-484,15204,15,211,290
51553482,-2496,-524,14740,-2,247,149
51556779,-2788,-532,15060,41,337,134
51560079,-2484,-416,14856,54,118,340
51563433,-2592,-404,14904,-83,412,15
51566668,-2900,-328,15176,-18,67,325
51569965,-2760,-356,14912,-63,252,202
51573348,-2500,-440,14712,-89,200,147
51576731,-2592,-368,14784,-85,173,151
51580115,-2772,-364,14980,-94,343,124
51583498,-2564,-496,14844,-37,176,205
51586906,-2880,-268,15100,13,263,277
51590178,-2764,-484,15032,-1,226,107
51593474,-2928,-404,14976,65,252,275
51596771,-2592,-476,14808,-40,233,123
51600154,-2760,-544,15180,-33,268,155
51603537,-2648,-348,14844,-42,157,211
51606920,-2760,-472,15088,-68,209,153
51610327,-2756,-336,15068,-78,264,230
51613687,-2664,-516,14892,-85,181,143
51617105,-2752,-344,14960,-26,274,218
51620453,-2736,-552,15156,-51,165,171
51623837,-2596,-568,14816,-23,245,139
51627220,-2860,-376,15076,66,203,206
51630516,-2340,-468,14708,51,226,195
51633813,-3008,-448,15152,-59,250,212
51637221,-2560,-376,14840,-120,181,153
51640666,-2872,-432,15064,15,188,287
51643963,-2288,-492,14836,-147,206,101
51647433,-2924,-444,15112,-73,294,166
51650816,-2492,-452,14848,-3,189,260
51654112,-2736,-408,15044,-100,319,57
51657496,-2808,-460,15072,48,254,260
51660840,-2880,-252,14876,-55,250,59
51664089,-2560,-576,14940,6,264,266
51667298,-2744,-516,14860,-164,268,77
51670682,-2948,-492,15272,82,120,382
51673978,-2420,-412,14616,-145,171,133
51677448,-2792,-464,15000,0,190,226
51680658,-2612,-520,15048,-40,228,197
51684041,-2588,-560,14948,-114,310,46
51687449,-2868,-420,15136,77,215,324
51690721,-2664,-352,14812,-14,209,97
51694017,-2696,-576,15096,0,256,238
51697227,-2684,-412,14736,-31,183,121
51700610,-2644,-544,15192,14,308,181
51703907,-2624,-504,14784,-14,89,318
51707203,-2564,-496,14900,-96,377,8
51710436,-2956,-344,15148,-17,128,317
51713796,-2696,-400,14872,-117,314,55
51717215,-2772,-504,15012,-21,170,286
51720563,-2544,-580,14992,0,203,143
51723773,-2664,-296,14964,-26,331,129
51727156,-2696,-424,15016,19,157,223
51730452,-2704,-352,14944,5,219,238
51733662,-2372,-544,14768,-79,251,161
51737070,-3020,-304,14916,-77,199,193
51740429,-2584,-452,14984,-72,277,205
51743812,-2680,-416,14876,-118,201,125
51747282,-2796,-436,15124,-36,231,270
51750665,-2676,-412,14880,-53,285,34
51753962,-2784,-532,15148,32,241,230
51757258,-2740,-468,14976,-45,197,157
51760690,-2444,-628,14996,5,181,233
51763851,-2804,-392,14756,-117,266,151
51767321,-2580,-468,14944,-27,203,166
51770704,-2916,-324,15132,-74,340,172
51774088,-2624,-456,14896,41,77,301
51777297,-2388,-356,14692,-140,335,65
51780681,-2952,-496,15172,-110,207,147
51784151,-2584,-464,14808,17,210,244
51787472,-2628,-436,15004,-60,301,153
51790830,-2952,-500,15216,43,181,194
51794127,-2488,-612,14792,17,264,275
51797423,-2800,-416,14956,-46,169,149
51800807,-2488,-452,14700,62,235,240
51804103,-2848,-444,14956,-149,240,103
51807573,-2608,-532,14948,-9,171,245
51810893,-2580,-476,14852,-177,286,120
51814340,-2740,-476,15084,-34,169,201
51817758,-2808,-472,15056,-74,364,142
51821106,-2720,-452,15076,57,121,271
51824403,-2616,-504,14772,-27,311,123
51827786,-2876,-404,14960,17,180,218
51831082,-2372,-592,14880,4,232,231
51834292,-2800,-404,14896,-83,280,205
51837700,-2588,-480,14956,-138,214,102
51841145,-2980,-360,15088,79,156,377
51844442,-2412,-408,14608,-190,306,29
51847825,-2944,-576,15392,15,198,239
51851122,-2600,-424,14852,-70,260,202
51854505,-2656,-392,14860,37,210,177
51857801,-2636,-380,14764,-42,355,79
51861146,-2856,-448,15276,76,177,253
51864394,-2652,-464,14936,-54,362,60
51867691,-2744,-356,15140,-97,182,186
51871074,-2696,-396,14884,-34,157,262
51874457,-2776,-484,14948,-85,301,124
51877841,-2592,-500,14904,-35,201,193
51881224,-2736,-448,15088,-7,264,224
51884520,-2540,-540,14916,-24,169,152
51887928,-2832,-340,14836,-55,311,171
51891287,-2960,-492,15200,54,218,244
51894583,-2228,-488,14516,-33,227,167
51897967,-3040,-312,15132,-78,315,47
51901263,-2304,-572,14792,-82,171,201
51904646,-3124,-412,15260,-99,326,111
51908030,-2624,-564,14896,-100,177,130
51911523,-2996,-300,15060,-37,274,184
51914883,-2560,-540,14996,11,129,266
51918214,-2692,-536,14964,-77,268,116
51921563,-2624,-440,15060,20,242,187
51924859,-2684,-420,14976,1,202,191
51928069,-2604,-404,14880,22,282,229
51931365,-2788,-484,15064,-107,244,49
51934752,-2612,-524,15000,-23,248,242
51938156,-2956,-316,14900,-88,162,195
51941515,-2664,-512,15004,-5,250,259
51944812,-2520,-544,14868,-155,249,70
51948195,-2840,-476,15056,-28,167,257
51951578,-2556,-476,14656,-107,267,128
51955048,-2936,-368,15100,49,114,272
51958345,-2488,-540,14864,-53,400,55
51961691,-3020,-384,15228,40,145,293
51964938,-2484,-484,14904,18,265,177
51968234,-2752,-384,14896,-179,217,128
51971704,-2824,-472,15240,29,221,237
51975001,-2672,-412,14836,-124,250,206
51978471,-2784,-444,15084,-99,269,79
51981767,-2812,-448,15028,-8,229,259
51985088,-2636,-464,14876,-75,257,50
51988360,-2880,-452,15112,71,255,285
51991657,-2520,-464,14724,-5,192,167
51994953,-2956,-336,15116,126,152,337
51998336,-2252,-496,14684,-57,263,61
52001633,-2904,-360,15220,-130,289,121
52005103,-2576,-404,14840,-141,257,171
52008573,-2956,-340,15280,-3,163,196
52011893,-2456,-512,14712,-56,304,190
52015253,-2900,-408,15176,-58,192,169
52018671,-2624,-376,14792,24,276,255
52021932,-2600,-512,14812,-73,228,130
52025316,-2796,-388,14944,100,171,285
52028699,-2600,-296,14636,-165,363,60
52032082,-3160,-356,15268,31,143,243
52035403,-2220,-580,14692,-121,312,156
52038849,-3136,-312,15172,17,38,354
52042058,-2152,-536,14688,-63,341,108
52045442,-3052,-380,15216,-118,187,145
52048912,-2340,-532,14552,-8,166,206
52052208,-2872,-376,15060,-148,364,-4
52055591,-2764,-432,15064,122,56,375
52058888,-2740,-480,14916,-129,454,20
52062374,-2800,-488,15044,81,79,307
52065481,-2412,-376,14552,-5,308,160
52068777,-2828,-408,15152,-70,169,188
52072161,-2600,-384,14808,-48,268,207
52075544,-2768,-452,15040,-94,192,152
52078927,-2588,-464,14996,-32,162,216
52082310,-2648,-404,15032,-136,279,140
52085805,-2800,-440,15040,-20,153,203
