Time,Accel_X,Accel_Y,Accel_Z,Gyro_X,Gyro_Y,Gyro_Z
367206593,-2712,2148,15364,-29,226,107
367210063,-3840,-1336,16960,0,56,194
367213394,-4048,828,16028,71,249,163
367216680,-2792,-252,16116,-316,111,-461
367220299,-2568,1508,15596,-114,-74,-172
367223943,-3308,1632,15620,-77,-43,-177
367227500,-3292,220,15884,74,-152,128
367230883,-3824,544,15824,-74,271,40
367234179,-3000,-1408,16548,-232,223,-375
367237909,-2616,1340,15668,-95,245,-28
367241404,-2600,900,15812,-292,364,-304
367244936,-3232,632,15372,-40,30,-173
367248320,-3212,2336,15484,5,149,241
367251616,-4176,-1964,16768,-88,8,-199
367255086,-4008,368,16144,-38,153,-68
367258469,-2812,64,16188,-176,-81,-331
367261939,-3096,1168,15492,-89,73,-240
367265409,-3112,1752,15604,-53,-10,191
367268928,-3232,-1228,16908,-48,276,51
367272349,-4396,356,16332,-40,280,106
367275733,-2452,484,16092,-300,319,-351
367279289,-3120,940,15556,-122,223,-189
367282846,-3092,2352,15496,-211,5,-266
367286316,-3344,428,15520,191,-94,223
367289699,-4212,712,15928,-45,45,29
367292932,-2868,-416,16336,-56,-63,-193
367296466,-2252,1228,15252,-264,215,-322
367300109,-2516,1040,16012,-88,-83,-204
367303666,-3092,576,15572,-183,331,-82
367307136,-2576,2232,15352,-62,108,67
367310519,-3976,-1468,16916,-95,352,11
367314024,-4068,56,16328,-101,308,1
367317224,-2628,696,15872,-215,42,-351
367320669,-3292,492,15572,-34,-35,-55
367324052,-3072,1832,15288,-39,-114,-37
367327609,-3628,-1192,16348,175,-135,188
367331253,-4160,-32,15972,-135,214,-68
367334723,-2344,560,15840,-209,223,-387
367338279,-2520,1232,15348,-276,301,-157
367341947,-2556,820,16040,-226,247,-295
367345480,-3312,668,15628,44,110,171
367348776,-3388,2264,15444,-6,4,269
367351986,-4124,-1932,16804,-88,150,-234
367355629,-2964,1280,15512,-80,17,-45
367359013,-3008,52,16264,-123,-5,-325
367362396,-2876,1264,15480,125,-194,107
367365956,-3280,1772,15584,-23,-3,250
367369384,-3056,-1244,16580,-219,314,-326
367373066,-4172,536,16124,-33,180,125
367376449,-2424,368,16188,-303,481,-275
367380006,-3148,980,15640,-110,54,-192
367383476,-3128,2248,15668,-170,69,-219
367387033,-3420,524,15368,102,-145,179
367390503,-4124,384,16092,98,-119,63
367393822,-3344,-1224,16420,-120,1,-220
367397356,-2316,1176,15220,-159,247,-159
367400999,-2628,1032,16192,-108,58,-173
367404556,-2572,1524,15100,-234,214,-165
367408200,-2568,2440,15476,9,170,133
367411496,-3872,-1468,16856,30,73,270
367414914,-4248,60,16168,-44,259,-20
367418201,-2616,1028,15972,-243,9,-311
367421646,-2804,1380,15636,11,-155,-23
367425116,-3056,1928,15364,-47,16,-55
367428499,-3236,712,15716,119,-156,178
367431969,-3948,-124,15948,-82,293,-35
367435439,-2240,696,16052,-269,219,-425
367438996,-2732,1184,15676,-227,308,-115
367442664,-2616,984,16232,-265,367,-297
367446196,-3272,464,15544,-65,0,-142
367449493,-3584,2140,15588,-6,193,260
367452876,-4080,-1912,16884,-94,-13,-230
367456520,-4120,352,15964,-53,102,-65
367459903,-2852,188,16228,-162,-94,-333
367463460,-2160,1692,15348,-72,-40,-164
367467065,-2964,1820,15464,-97,80,137
367470400,-3512,-168,15808,-43,231,22
367473783,-4224,264,16464,-84,307,50
367477079,-2488,564,16076,-353,378,-298
367480636,-2992,912,15560,-79,141,-199
367484106,-3036,2684,15448,-255,49,-228
367487663,-3632,64,15604,197,-102,224
367491069,-3968,652,15916,44,-31,60
367494256,-3452,-1164,16328,-70,-48,-188
367497899,-2316,1308,15276,-233,176,-340
367501543,-2504,1012,16088,-126,-24,-160
367505186,-3160,380,15504,-156,313,-75
367508656,-2532,2184,15364,-31,61,99
367511953,-3992,-1420,16816,49,83,242
367515371,-4264,-48,16156,-84,301,-50
367518744,-2612,876,15808,-218,41,-332
367522189,-2768,1436,15452,-45,-8,-48
367525573,-2880,1992,15348,21,-146,9
367528869,-3904,-1384,16680,171,-121,227
367532513,-3920,152,16152,-118,222,-42
367535983,-2324,484,16140,-189,197,-362
367539539,-2836,1372,15536,-287,353,-172
367543207,-2664,572,16244,-275,302,-304
367546739,-3172,944,15260,32,106,191
367550036,-4040,468,16024,38,19,328
367553246,-4096,-1828,16860,-110,111,-248
367556976,-2804,1140,15576,-56,90,6
367560186,-2916,-76,16220,-163,-39,-379
367563742,-2896,1324,15540,-122,113,-231
367567447,-3140,1736,15572,-52,-30,225
367570856,-3096,-1220,16580,-37,385,14
367574326,-4100,680,16196,-15,153,107
367577709,-2576,12,16128,-257,404,-207
367581179,-3080,876,15640,-152,120,-251
367584736,-3052,2416,15564,-184,-7,-246
367588293,-3356,288,15312,102,-62,163
367591699,-4088,664,16048,51,-158,48
367594973,-3600,-1248,16500,-55,32,-171
367598529,-2224,1096,15436,-238,136,-358
367602173,-2512,960,15944,-85,-17,-148
367605643,-3164,460,15564,-245,339,-148
367609200,-2700,2416,15188,45,24,141
367612496,-3760,-1592,17068,-265,436,-95
367616182,-4236,548,16064,-21,203,33
367619436,-2720,136,16228,-187,111,-313
367622993,-2760,1384,15396,-123,-24,-122
367626636,-3004,1800,15284,-113,-96,-257
367630280,-3028,644,15656,114,-63,163
367633663,-3836,280,15772,-56,8,232
367636873,-2792,-1148,16532,-202,290,-372
367640607,-2900,1100,15508,-112,222,28
367644098,-2740,644,15980,-253,382,-337
367647630,-3080,760,15316,-78,96,-138
367651013,-3272,2444,15576,18,22,235
367654310,-4080,-1848,16980,-104,83,-191
367657953,-3880,440,15880,-34,11,-45
367661250,-2864,-16,16484,-161,-16,-317
367664806,-2376,1288,15216,-206,65,-288
367668412,-3208,2128,15552,-69,-32,-150
367671920,-3216,168,15452,-87,297,84
367675216,-4252,776,16268,13,169,144
367678513,-2456,-8,16164,-315,475,-193
367681983,-3136,968,15516,-127,98,-242
367685453,-3100,2300,15720,-195,113,-291
367689096,-3324,640,15448,124,-203,167
367692591,-3292,1972,15332,96,-84,96
367695863,-3460,-1236,16444,-124,-36,-174
367699593,-3832,168,15948,-121,224,-81
367703063,-2452,712,16000,-146,86,-235
367706533,-2588,1468,15472,-240,243,-134
367710177,-2488,2256,15252,13,205,135
367713560,-3388,168,15748,3,64,168
367716724,-4024,640,16004,0,281,61
367719806,-2848,64,16128,-276,20,-395
367723189,-3260,1096,15688,-82,-52,-115
367726746,-3008,1980,15392,-31,-113,18
367730216,-3656,-1116,16336,121,-129,140
367733859,-4024,324,16008,-73,254,36
367737156,-2368,100,16136,-227,200,-325
367740716,-3020,1100,15712,-270,354,-157
367744381,-2584,704,15968,-303,356,-334
367747913,-3172,780,15460,53,13,147
367751123,-3952,1284,15960,-22,160,153
367754593,-4116,-1688,16600,-28,-19,-89
367758149,-3012,932,15624,-2,117,-51
367761446,-2812,236,16220,-165,-104,-310
367765089,-2848,1112,15524,-108,73,-210
367768694,-3076,1976,15584,-81,31,151
367772029,-3232,-1468,16904,-39,230,51
367775499,-4024,836,16208,-30,274,131
367778883,-2800,-312,16420,-306,316,-417
367782526,-2928,824,15988,-153,241,-294
367786083,-3292,2240,15536,-188,3,-216
367789553,-3508,168,15760,134,-116,161
367793047,-4016,676,15720,44,-57,83
367796233,-3496,-1400,16460,-99,-55,-202
367799876,-2468,1068,15288,-245,305,-335
367803519,-2364,860,16024,-150,-37,-216
367807076,-3088,636,15332,-159,288,-107
367810633,-2500,2272,15332,-45,148,78
367814016,-3992,-1380,16832,62,13,209
367817441,-4016,564,16272,-120,286,-7
367820783,-2660,276,15952,-211,14,-365
367824253,-2708,1336,15484,-80,51,-164
367827723,-3012,1884,15388,41,-211,63
367831106,-3364,348,15956,109,-47,183
367834489,-3860,392,15960,-97,153,2
367837699,-2384,316,16196,-167,97,-298
367841194,-2712,1360,15584,-310,341,-214
367844812,-2620,2116,15496,-228,226,-249
367848456,-3220,568,15488,21,96,149
367851666,-4072,940,16144,17,172,145
367854962,-2852,-560,16328,-79,133,-196
367858519,-2800,1244,15684,-136,-35,-145
367862163,-3028,208,16300,-54,-65,-231
367865636,-3064,1092,15708,53,-143,80
367869064,-3084,2048,15272,-6,-2,230
367872312,-3172,-1524,16796,-233,337,-297
367876043,-4132,848,16068,-31,168,108
367879426,-2844,-268,16136,-301,441,-399
367883069,-2728,1072,15688,-191,125,-377
367886713,-3400,2476,15248,-111,-26,-135
367890356,-3688,-296,15820,113,-123,113
367893938,-3204,2004,15268,43,-125,58
367897296,-3548,-1588,16488,-107,24,-178
367900940,-3760,-84,16128,-202,261,-197
367904496,-2764,980,16220,-103,106,-164
367908053,-2520,1408,15448,-222,233,-109
367911697,-2476,2228,15032,-174,270,-193
367915340,-3756,-96,15900,41,106,213
367918679,-3920,508,16060,-11,113,238
367922020,-3832,-1708,16652,-153,122,-330
367925750,-3636,364,15916,-154,57,-143
367929220,-2736,1028,16064,-65,-82,-243
367932777,-2264,1468,15376,-45,-19,-61
367936247,-3204,1676,15180,-58,93,185
367939630,-2696,-1096,16592,-42,370,-33
367943212,-4120,388,16280,-140,269,-5
367946570,-2648,820,16080,-329,462,-325
367950127,-2892,1196,15684,-37,-5,-149
367953597,-3624,2240,15552,-111,49,-101
367957154,-3748,-432,16160,103,-98,144
367960624,-3560,1388,15332,85,-79,111
367964007,-3172,-1104,16440,-161,0,-294
367967613,-3416,260,15780,-181,223,-178
367971120,-2760,1168,16080,-107,77,-124
367974677,-2648,1436,15272,-183,213,-82
367978234,-2884,1948,15184,55,183,186
367981617,-3824,-548,16352,-32,151,141
367985087,-3772,500,16060,-58,283,-96
367988471,-2612,780,15932,-209,152,-345
367992052,-2836,1292,15368,-14,-128,-83
367995584,-2848,1348,15804,-69,-41,-171
367999141,-3504,-120,16264,81,-167,134
368002611,-3508,1292,15396,-22,149,181
368006081,-2476,-780,16292,-223,94,-391
368009638,-3800,572,16184,-220,287,-113
368013194,-2532,1352,15880,-373,472,-367
368016861,-2848,1140,15524,-30,9,-95
368020170,-3324,2124,15356,-48,47,60
368023431,-4044,-1048,16244,54,-57,76
368026814,-3784,532,15884,-75,143,-111
368030284,-2808,504,16248,-164,10,-335
368033754,-2304,1512,15328,-65,-36,-93
368037224,-3164,1716,15292,-67,72,-4
368040524,-3592,-676,16164,-74,303,-12
368044015,-4104,496,16284,-104,329,48
368047374,-3076,-1124,16372,-378,362,-354
368051104,-2780,1212,15564,-80,205,-171
368054661,-2748,1572,15808,-184,54,-137
368058218,-3592,-68,15776,59,-175,51
368061514,-3548,1548,15348,67,0,124
368064724,-3140,-1156,16348,-148,-31,-320
368068556,-3148,296,15688,-174,300,-222
368072011,-2844,1256,15920,-248,101,-376
368075654,-2588,1500,15360,-112,217,-60
368079211,-2596,1756,15780,-115,287,-68
368082768,-3900,-492,16352,-12,157,143
368086238,-3952,1528,15556,96,200,287
368089632,-3428,-1380,16796,-266,54,-431
368093294,-3284,876,15752,-97,27,-122
368096648,-2772,1024,15968,-131,-60,-214
368100291,-2468,1812,15212,26,-186,-5
368103675,-3396,1064,15144,-7,187,175
368107058,-2580,-728,16300,-122,263,-180
368110701,-3748,676,16112,-177,380,-9
368114084,-2788,-756,16304,-369,399,-411
368117751,-2684,1332,15412,-7,36,-54
368121063,-2772,1960,15852,-102,59,46
368124408,-3860,-884,16156,77,-67,65
368127704,-3540,420,16124,-101,125,-115
368131261,-3148,-1012,16524,-203,-40,-345
368134991,-2768,476,15508,-205,237,-293
368138548,-2904,1660,15912,-116,41,15
368141956,-3280,-636,16052,-69,152,-11
368145401,-3280,1996,15512,74,108,267
368148785,-3400,-1452,16632,-62,228,175
368152341,-3520,60,16128,-172,357,-265
368155811,-2704,1772,15952,-245,-12,-437
368159455,-3016,1056,15416,49,-96,62
368162751,-3312,1772,15220,-88,-76,-150
368166356,-3648,-740,16384,58,-107,90
368169691,-3360,408,15756,-24,226,97
368172988,-2384,-460,16244,-208,63,-336
368176545,-2528,1420,15444,-191,304,-134
368180188,-2616,2080,15728,-141,207,-95
368183745,-3772,-644,16136,30,-58,61
368187041,-3860,1784,15516,-16,223,212
368190515,-3488,-1580,16628,-194,58,-360
368194179,-3432,592,15844,-115,153,-147
368197712,-2880,1016,16040,-197,-61,-379
368201355,-2316,1644,15380,34,-69,-50
368204738,-3356,1468,15216,-83,97,48
368208035,-3496,-1136,16644,-86,291,-61
368211592,-4012,616,16272,84,199,230
368214888,-2836,-864,16264,-343,324,-352
368218555,-2836,1200,15512,-101,241,-194
368222210,-2748,2032,15900,-139,-15,-37
368225732,-3012,1240,15504,133,-144,130
368229289,-3600,1208,15368,33,29,90
368232498,-3196,-1156,16292,33,-145,-3
368235968,-3204,292,15756,-220,337,-237
368239525,-2968,1416,15996,-208,42,-405
368243106,-2584,1428,15208,-103,259,-13
368246639,-2644,2044,15776,-94,172,-44
368250108,-3988,-904,16616,-28,236,140
368253579,-3812,1328,15744,-18,273,210
368257049,-3280,-1236,16508,-211,69,-412
368260692,-3208,744,15696,-117,124,-165
368264249,-2876,1412,15772,-22,-209,-138
368267941,-2636,1308,15588,57,-99,28
368271189,-3648,1084,15540,-33,105,159
368274659,-3412,-1352,16776,-93,247,-140
368278302,-3808,712,15872,63,240,195
368281599,-2888,-764,16432,-313,296,-375
368285242,-2684,1400,15252,-194,241,-314
368288886,-2920,2332,15668,-32,-55,129
368292380,-3940,-1272,16180,106,-176,182
368295999,-3852,1232,15616,27,47,39
368299209,-3008,-1028,16440,-5,-108,-54
368302766,-2724,704,15508,-222,320,-339
368306323,-2708,1812,15728,-203,23,-359
368309879,-2840,1132,15348,-21,237,75
368313263,-3420,1552,15492,-92,174,32
368316669,-4104,-1188,16728,-61,246,78
368320116,-3592,240,15912,-8,290,211
368323449,-2836,-680,16284,-255,33,-475
368326969,-3008,1312,15328,29,-75,93
368330265,-3516,1428,15336,-57,-179,-127
368333909,-3648,-408,16184,110,-16,106
368337379,-3776,624,15708,-34,101,171
368340766,-2332,-408,16240,-206,166,-465
368344430,-3328,1188,15664,-270,336,-93
368347963,-2564,1532,15848,-161,194,-179
368351606,-2836,1216,15224,15,80,28
368354816,-3700,1500,15592,12,141,251
368358199,-3616,-1464,16612,73,32,-16
368361582,-3196,920,15808,-153,27,-129
368365052,-3004,1004,15896,-126,-54,-325
368368744,-2352,1604,15256,-40,-29,-69
368372166,-2892,2032,15788,-36,-78,113
368375636,-3412,-1144,16344,-144,396,-80
368379279,-3744,1148,15800,68,83,217
368382576,-2904,-728,16212,-345,481,-399
368386219,-3204,548,15872,-143,186,-216
368389776,-2964,1912,15796,-99,50,4
368393010,-3780,-684,15936,58,-79,107
368396369,-3500,1248,15596,57,-45,104
368399752,-3208,-1068,16396,-146,54,-303
368403396,-3132,332,15664,-220,196,-243
368406953,-2672,1560,15936,-221,134,-386
368410596,-2800,1344,15208,-117,180,17
368414066,-2592,1892,15780,-104,126,-62
368417646,-3896,-708,16436,-89,270,137
368421093,-3956,1376,15636,16,144,226
368424511,-3180,-1184,16480,-233,182,-413
368428206,-3064,1080,15676,-151,19,-165
368431763,-2916,1204,15928,-127,-56,-329
368435407,-2652,1456,15520,21,-50,27
368438703,-3648,972,15656,-52,-48,193
368442111,-3416,-1400,16684,-131,392,-160
368445817,-3512,772,15852,-15,166,139
368449200,-2688,-392,16120,-278,452,-370
368452843,-2972,1212,15536,-163,173,-255
368456487,-3116,2308,15948,-58,0,77
368459697,-4112,-1304,16384,129,-47,198
368463253,-3832,976,15768,28,-8,67
368466425,-3104,-876,16568,-185,78,-345
368469933,-2896,548,15496,-241,183,-328
368473490,-2832,1736,15916,-75,52,18
368476786,-2920,1108,15388,-88,194,52
368480169,-3312,1476,15552,78,176,198
368483553,-3300,-1060,16612,-84,319,81
368487023,-3584,192,16124,-85,203,-165
368490496,-2620,1696,15772,-274,186,-424
368494161,-2852,1432,15372,47,-171,45
368497520,-3544,1412,15440,13,-91,-51
368500903,-3704,-712,16340,50,-112,43
368504286,-3400,280,15704,-155,330,-201
368507843,-2288,-444,16248,-222,134,-344
368511486,-2672,1532,15532,-292,312,-156
368515130,-2448,1864,15840,-122,270,-93
368518710,-2976,1112,15340,-3,-54,22
368521983,-3868,1828,15504,51,171,269
368525401,-3516,-1620,16812,3,24,-7
368528576,-3380,816,15748,-98,40,-137
368531959,-2880,880,15876,-125,-72,-200
368535516,-3396,268,15980,-6,-114,-27
368538899,-3296,1404,15520,15,127,199
368542307,-2716,-960,16584,-132,300,-100
368545926,-4056,720,15948,-161,332,-26
368549396,-2528,892,16000,-359,453,-349
368552953,-2820,1180,15548,-47,22,-126
368556423,-3476,2264,15328,-113,90,-10
368559893,-3928,-808,15936,109,-142,93
368563363,-3672,728,16020,56,-14,87
368566633,-3312,-1164,16604,-179,45,-277
368570216,-2104,1620,15440,-259,238,-290
368573860,-2800,1632,15824,-84,101,-30
368577329,-3436,-440,16064,-118,140,11
368580800,-3092,1936,15380,77,209,202
368584183,-3460,-1496,16728,-62,251,164
368587739,-3868,296,16192,-79,240,-104
368591234,-2624,996,16008,-232,169,-398
368594766,-2916,1516,15448,11,-136,-15
368598236,-3324,1568,15340,-34,-62,-154
368601793,-3600,-84,15884,65,-160,81
368605090,-3672,4,15952,15,113,196
368608213,-2724,716,16208,-227,137,-400
368611769,-2568,1548,15392,-172,284,-93
368615326,-2552,1556,15960,-184,271,-189
368618993,-3568,-76,15696,25,44,201
368622179,-3948,592,16100,11,194,232
368625511,-3776,-1928,16768,-141,13,-290
368629119,-2872,1548,15352,-87,133,-150
368632676,-2896,504,16164,-125,-138,-272
368636320,-2112,1480,15196,-85,3,-162
368639703,-3276,1800,15240,-22,50,221
368643111,-2856,-1228,16620,-29,232,39
368646556,-3972,492,16280,-136,352,-2
368649939,-2592,832,16052,-347,318,-327
368653496,-2760,1024,15504,-25,156,-147
368657053,-3320,2424,15388,-207,29,-167
368660609,-3572,-68,15648,172,-109,188
368664080,-4072,480,16032,57,4,107
368667251,-3248,-1084,16432,-123,-15,-266
368670933,-2328,1164,15368,-138,272,-130
368674576,-2540,1160,16000,-123,-11,-173
368678220,-2628,1548,15300,-131,245,-75
368681776,-2836,2072,15252,14,105,160
368685160,-3808,-304,15968,29,97,171
368688456,-4164,368,16132,-45,291,35
368691777,-2632,544,16128,-218,73,-370
368695223,-2616,1876,15356,-37,-17,-57
368698693,-3252,1516,15360,97,-172,104
368702163,-3456,-140,15992,62,-65,29
368705459,-3844,492,15664,-80,179,9
368708669,-2412,224,16036,-187,66,-338
368712139,-2588,1660,15328,-290,339,-199
368715786,-2524,2232,15316,-219,222,-224
368719449,-3280,228,15652,21,162,117
368722723,-4068,972,15956,-30,26,248
368726054,-4020,-2036,16924,-66,127,-208
368729663,-2796,1324,15480,-91,109,-123
368733219,-2804,408,16304,-149,-82,-256
368736776,-3072,728,15676,-80,114,-189
368740246,-3112,2040,15376,-52,-20,172
368743741,-3284,-1472,16696,15,273,99
368747099,-4224,448,16152,-89,214,3
368750309,-2632,276,16000,-256,366,-295
368753866,-3140,868,15572,-140,162,-224
368757423,-3096,2528,15568,11,3,224
368760632,-4304,-1764,16524,129,-52,224
368764189,-4040,660,16076,1,46,-1
368767274,-2972,-360,16272,-193,73,-312
368770782,-2308,1116,15184,-203,119,-307
368774426,-3036,1976,15588,-56,88,118
368777809,-2968,812,15496,-52,220,56
368781105,-4176,724,16068,54,196,173
368784402,-2620,-404,16164,-363,366,-403
368788045,-3272,572,15964,-118,153,-213
368791627,-2916,1968,16072,-253,164,-377
368795246,-2992,1204,15420,97,-204,149
368798716,-3116,1800,15340,70,-64,63
368802012,-3780,-1224,16836,-25,-40,-93
368805569,-2716,784,15536,-105,201,20
368808952,-2436,92,16260,-187,93,-347
368812335,-2796,1292,15428,-275,262,-187
368816002,-2564,2256,15496,-81,241,41
368819362,-4136,-1044,16576,47,-43,130
368822832,-3936,1196,15888,36,272,211
368826250,-3108,-952,16192,-73,32,-150
368829685,-2992,1116,15660,-105,17,-162
368833242,-2732,1500,15544,-194,32,-349
368836799,-2832,1348,15396,133,-169,96
368840269,-3796,676,15532,-45,74,165
368843590,-3172,-1324,16652,-166,252,-225
368847296,-3304,912,15796,23,272,142
368850592,-2620,-52,16216,-351,298,-374
368854149,-2792,1176,15120,-121,134,-244
368857792,-3144,2324,15832,-94,26,112
368861175,-3996,-1500,16592,94,-184,141
368864732,-3944,904,15888,38,66,86
368867904,-2948,-856,16520,-204,-30,-406
368871499,-2568,932,15556,-197,265,-304
368875056,-3004,1760,15812,-102,-45,55
368878526,-2960,812,15540,-19,204,70
368881822,-3912,1196,15836,41,159,219
368885205,-2764,-748,16276,-134,276,-28
368888762,-3472,380,15680,-137,233,-162
368892343,-2848,-400,16056,-262,45,-401
368895875,-3096,1240,15356,97,-73,119
368899259,-2884,1508,15472,-11,-158,-61
368902816,-3880,-800,16404,45,-35,7
368906025,-3188,264,15740,-102,233,73
368909409,-2352,-40,16184,-170,71,-387
368912879,-2600,1376,15152,-177,249,-11
368916459,-2588,2124,15648,-69,97,4
368919645,-3868,-912,16608,-67,286,102
368923115,-3824,256,16132,42,157,225
368926447,-3340,-1204,16448,-216,133,-425
368930142,-3452,912,15808,-144,78,-113
368933612,-2748,788,15964,-116,-59,-287
368937169,-2260,2176,15152,25,-85,3
368940378,-3780,432,15440,15,64,198
368943612,-2208,100,16100,-278,203,-478
368947145,-3812,804,15888,-128,257,44
368950528,-2668,1028,16152,-255,341,-323
368954172,-2520,1924,15176,-81,28,-56
368957555,-3872,1532,15496,120,77,371
368960938,-3728,-1368,16840,-8,139,-95
368964408,-3548,860,15768,-68,32,-22
368967754,-2952,380,16048,-124,8,-338
368971088,-2260,1848,15200,-42,-112,-158
368974731,-3328,1524,15368,-17,-61,52
368978115,-3524,-616,16152,-115,370,-44
368981671,-4160,360,16136,-86,250,43
368984968,-3176,-1116,16428,-385,510,-308
368988698,-2956,1000,15448,-69,186,-107
368992279,-2604,1156,16144,-173,130,-183
368995898,-2780,1756,15272,-4,-155,52
368999281,-3660,1016,15424,122,-37,144
369002751,-3232,-904,16384,-22,28,-47
369006135,-3372,200,15644,-141,245,-153
369009692,-2580,1220,16148,-240,207,-428
369013335,-2620,1488,15096,-123,190,-38
369016915,-2572,1596,16052,-124,274,-132
369020535,-3768,-336,16248,8,47,21
369023658,-3992,280,16176,20,186,270
369026990,-3584,-1496,16716,-233,99,-377
369030598,-2796,1524,15492,-129,45,-160
369034155,-2816,1108,15924,-108,-51,-178
369037799,-2344,1532,15536,19,-133,-72
369041293,-3444,1500,15412,4,154,220
369044565,-2780,-1132,16740,-106,279,-74
369048209,-3860,476,16068,-198,371,-61
369051679,-2792,-632,16252,-305,396,-363
369055322,-2668,1376,15540,-46,-6,-107
369058792,-3020,1760,15932,-84,121,-33
369062262,-3832,-716,16020,107,-138,118
369065822,-3420,1660,15380,87,-17,147
369069304,-3488,-1500,16548,-143,-21,-249
369072932,-2980,-236,16024,-301,291,-453
369076576,-2188,856,15916,-227,96,-341
369080046,-2880,776,15512,-67,138,-12
369083429,-3024,2308,15328,-126,217,-106
369087073,-3840,-832,16428,-31,161,186
369090546,-4092,1268,15996,25,143,211
369093950,-3180,-1060,16392,-278,103,-393
369097656,-3248,848,15768,-153,19,-154
369101126,-2868,1300,15944,-89,-20,-155
369104683,-2648,1476,15444,48,-172,42
369108066,-3452,1200,15508,2,187,140
369111363,-2540,-660,16392,-122,269,-98
369114919,-3812,644,16072,-227,401,-125
369118499,-2684,-404,16156,-364,444,-375
369122120,-2920,1148,15592,-9,-30,-4
369125416,-2916,2124,15924,-70,90,46
369128751,-3888,-1008,16304,47,-78,76
369132096,-3800,548,16024,-103,161,-112
369135652,-3064,-1052,16420,-180,-40,-380
369139383,-2764,600,15756,-242,272,-297
369142964,-2976,1612,16004,-86,41,-14
369146323,-3376,-524,16024,-75,162,27
369149706,-3416,1496,15604,67,196,226
369153089,-3020,-1104,16580,-120,223,24
369156646,-3568,344,15868,-74,294,-129
369160116,-2776,1524,15784,-287,100,-432
369163760,-2924,1428,15500,58,-134,73
369167191,-3416,1460,15280,-62,-30,-98
369170613,-3588,-324,15936,67,-116,82
369173996,-3456,-80,15740,33,163,169
369177293,-2440,-360,16336,-295,103,-438
369180936,-2664,1472,15364,-115,285,-28
369184493,-2628,1648,15968,-164,156,-125
369188136,-3692,-344,16120,-16,2,37
369191371,-3792,1736,15620,23,150,244
369194729,-3520,-1524,16672,-185,84,-381
369198373,-3336,796,15904,-112,122,-131
369201930,-2804,1072,15884,-207,15,-380
369205486,-2344,1684,15644,74,-126,-3
369208870,-3312,1500,15296,-135,131,56
369212340,-3464,-800,16404,-65,276,-76
369215813,-4140,308,16184,-227,424,-35
369219303,-2836,-712,16244,-400,334,-407
369222923,-2840,1288,15468,-59,212,-209
369226480,-2860,1904,15932,-190,38,-52
369229985,-3900,-652,16040,113,-217,125
369233507,-3532,1276,15460,47,23,104
369236803,-3268,-1112,16364,10,-92,25
369240186,-3320,184,15680,-184,326,-246
369243768,-2844,1344,16168,-249,37,-407
369247300,-2624,1484,15256,-109,271,-18
369250857,-3104,1968,15352,-140,193,-40
369254413,-4016,-776,16440,-14,196,151
369257883,-3788,356,15964,34,281,210
369261180,-3364,-1316,16572,-230,26,-379
369264823,-2824,1508,15404,-132,118,-160
369268515,-2876,1264,15760,-84,-146,-178
369272110,-2512,1388,15460,59,-135,12
369275494,-3556,1324,15396,-88,78,163
369278877,-2428,-684,16308,-97,270,-105
369282434,-3776,552,15964,-294,407,-109
369285990,-2756,-452,16244,-354,312,-368
369289634,-2864,1140,15256,-106,217,-215
369293302,-2924,2020,15880,-141,-2,11
369296661,-3948,-1060,16240,139,-192,151
369300304,-3844,1024,15476,18,68,96
369303514,-2996,-1020,16304,-141,-43,-340
369307244,-2924,616,15632,-229,322,-295
369310801,-2312,180,15984,-204,18,-360
369314271,-2776,1368,15404,-66,214,19
369317677,-3316,1728,15224,-116,215,-6
369321124,-4128,-1120,16788,-40,194,118
369324681,-3788,264,16024,-33,305,201
369328064,-3124,-936,16252,-250,46,-457
369331656,-2756,1660,15576,-117,90,-139
369335177,-2780,1272,15948,-59,-160,-143
369338821,-2696,1436,15380,53,-107,39
369342229,-3664,1100,15652,-39,104,175
369345674,-3340,-1200,16780,-163,249,-174
369349405,-3476,712,15856,45,268,165
369352701,-2660,-360,16096,-324,320,-379
369356345,-2984,1208,15492,7,60,18
369359468,-3624,1956,15452,-93,34,26
369362764,-3888,-1096,16404,97,-38,75
369366196,-3520,608,16032,-119,97,-123
369369617,-2836,-768,16376,-190,-59,-360
369373261,-2184,1632,15344,-89,57,-130
369376731,-2884,1920,15880,-51,-75,52
369380114,-3536,-888,16240,-64,388,-32
369383584,-3348,1864,15476,47,124,217
369386967,-3180,-1176,16552,-324,378,-274
369390701,-3804,76,16144,-179,348,-204
369394192,-2640,1740,15812,-144,-25,-95
369397724,-3008,1304,15364,88,-74,95
369401021,-3460,1616,15340,56,-71,72
369404317,-3460,-1244,16380,105,-80,123
369407874,-3516,40,15932,-206,259,-247
369411344,-2892,1268,16048,-176,31,-401
369414901,-2472,1456,15432,-161,296,-77
369418481,-2580,1660,15908,-158,176,-152
369422101,-3716,-260,16156,32,214,223
369425484,-3796,1784,15360,2,104,275
369428781,-3596,-1620,16540,-180,134,-376
369432546,-3644,696,15884,-147,96,-110
369435981,-2868,836,16008,-110,-111,-220
369439625,-2364,1624,15312,-13,-6,-48
369443032,-3216,1600,15328,-12,83,199
369446391,-3564,-1040,16260,-43,327,-58
369449948,-3900,756,16208,-152,273,-8
369453331,-2992,-968,16404,-256,390,-298
369456975,-2764,1184,15492,-131,80,-154
369460531,-2740,1888,15924,-143,-13,-60
369464088,-3716,-564,15844,101,-69,113
369467607,-3548,1372,15520,35,-105,93
369470941,-3376,-1244,16416,-131,76,-252
369474585,-3176,76,15800,-259,275,-313
369478055,-2876,1416,16200,-196,44,-403
369481612,-2620,1392,15324,-158,269,-13
369485168,-2616,1800,15848,-137,165,-119
369488812,-3812,-508,16448,-32,281,207
369492306,-3836,1660,15748,29,105,261
369495665,-3472,-1404,16532,-206,146,-405
369499395,-3168,956,15660,-170,71,-147
369502865,-2888,1144,15988,-169,-43,-344
369506509,-2544,1656,15312,44,-45,-2
369509805,-3368,1184,15452,-18,66,216
369513189,-3532,-1052,16520,-72,353,-107
369516855,-3684,472,16312,16,178,200
369520129,-2748,-592,16100,-337,392,-356
369523772,-2944,1092,15560,-47,23,-90
369527155,-2872,1808,15824,-99,6,-10
369530452,-3944,-768,16216,106,1,121
369533783,-3872,424,16236,66,-71,95
369536958,-2800,620,15940,-173,116,-308
369540518,-2328,1504,15384,-51,-70,-136
369544096,-2924,1352,15928,-110,87,-73
369547542,-3344,-288,15892,-49,257,39
369550925,-4200,492,16260,78,88,214
369554135,-3216,-1200,16456,-355,461,-268
369557865,-3136,948,15632,-55,159,-107
369561335,-2780,1112,16012,-219,128,-189
369564978,-2736,1592,15464,-6,-149,28
369568422,-3304,1516,15272,127,-52,118
369571832,-3424,-1200,16436,42,-18,64
369575215,-3492,404,16036,-143,232,-161
369578772,-2632,792,16108,-219,191,-360
369582328,-2484,1560,15360,-181,219,-146
369585972,-2672,1660,16152,-125,218,-131
369589615,-3712,-244,16032,-27,66,40
369592936,-3444,1860,15532,7,131,249
369596208,-3644,-1716,16692,-210,93,-338
369599852,-3656,540,15876,-109,29,-145
369603322,-2868,748,16004,-71,-20,-240
369606792,-2112,1660,15116,-43,-92,-107
369610348,-3300,1452,15408,-19,159,208
369613819,-3272,-804,16284,-99,286,-58
369617312,-4036,392,16444,-131,294,-23
369620759,-3020,-940,16304,-352,461,-363
369624402,-2880,1248,15476,-38,-2,-119
369627872,-2628,1728,16000,-138,104,-110
369631516,-3648,-504,15900,67,-185,113
369635020,-3556,1128,15360,83,6,77
369638109,-3196,-1064,16576,-167,-16,-253
369641863,-3228,-36,15836,-202,273,-246
369645396,-2780,1512,15844,-232,205,-431
369649039,-2540,1456,15448,-76,146,36
369652422,-3120,1896,15328,-108,250,-66
369655979,-3744,-492,16260,-34,166,139
369659449,-3916,20,16136,81,158,275
369662659,-3236,-1128,16556,-284,134,-422
369666437,-2628,1460,15480,-160,-12,-144
369670033,-2928,1240,15796,-77,25,-169
369673503,-3564,-128,16308,60,-198,-7
369676886,-3384,1196,15516,-21,199,168
369680356,-2384,-664,16276,-119,317,-93
369683913,-3660,596,16200,-184,319,-106
369687469,-2784,-300,16056,-351,423,-300
369691142,-2844,1132,15372,-48,19,-103
369694583,-2888,2424,15908,-28,55,45
369697879,-4100,-1384,16164,71,-75,99
369701263,-3708,616,15836,21,25,39
369704386,-2636,744,16136,-172,-35,-328
369707942,-2364,1624,15328,-70,-12,-157
369711499,-2796,1888,15872,-114,101,-27
369715056,-3504,-852,16120,-38,239,22
369718462,-3648,1372,15672,55,240,183
369721822,-3020,-952,16472,-307,297,-312
369725466,-3624,300,16108,-110,259,-134
369729023,-2752,1656,16068,-146,-30,-127
369732666,-2856,1388,15512,65,-172,91
369736084,-3564,1508,15392,-35,-19,-74
369739519,-3748,-620,16376,69,-156,69
369742927,-3260,124,15820,-234,415,-221
369746459,-2232,-328,15972,-248,36,-424
369750016,-2508,1532,15244,-272,370,-170
369753660,-2640,1672,15996,-135,202,-111
369757303,-3080,1056,15276,4,-27,52
369760513,-3696,1684,15616,32,195,236
369763896,-3384,-1204,16700,-230,25,-389
369767588,-3668,716,15732,-58,125,-43
369770923,-2796,528,16036,-221,15,-390
369774393,-2048,2320,15352,10,-133,-63
369777863,-3608,684,15516,-27,112,267
369781246,-3680,-1688,16852,-184,304,-276
369784976,-3672,1044,16032,38,223,167
369788360,-2908,-1088,16432,-318,341,-379
369792114,-3312,488,15800,-160,250,-302
369795647,-2824,2268,15852,-69,-59,70
369799030,-3976,-1056,16240,126,-151,147
369802673,-3580,1224,15380,24,5,80
369805796,-3192,-1120,16436,-138,-14,-304
369809527,-2928,488,15624,-247,352,-308
369813083,-2316,168,16064,-185,26,-321
369816576,-2748,1332,15212,-40,231,34
369819937,-3296,1444,15604,-109,223,-20
369823493,-4084,-960,16588,-51,239,95
369826877,-3752,172,16060,14,270,215
369830173,-3116,-928,16484,-289,70,-467
369833730,-2952,1520,15380,-120,49,-160
369837322,-2904,1444,15720,-58,-177,-109
369840955,-2672,1480,15572,81,-157,50
369844313,-3848,760,15636,-59,189,179
369847697,-2400,-328,16164,-183,231,-274
369851340,-3192,1216,15868,-259,436,-116
369854984,-2820,-344,16108,-281,285,-348
369858627,-2872,1260,15284,-165,177,-307
369862271,-3068,2612,15644,-24,8,198
369865571,-4240,-1768,16652,44,40,-17
369868999,-3992,876,15768,24,102,30
369872160,-2896,-704,16380,-148,-67,-327
369875804,-2496,1616,15436,-230,269,-323
369879447,-3048,1956,15596,-96,-12,74
369882830,-2948,964,15272,-14,183,118
369886214,-3700,1380,15664,53,149,174
369889597,-3060,-972,16152,-91,220,116
369893091,-3308,20,15992,-211,361,-351
369896537,-2884,2496,15824,-296,-29,-448
369900180,-3192,860,15388,110,-94,153
369903564,-3748,1472,15448,-52,-103,-76
369907120,-3748,-1040,16548,83,-34,42
369910503,-3108,444,15612,-95,265,77
369913800,-2344,-80,16312,-185,33,-380
369917293,-2696,1464,15176,-122,225,16
369920740,-2604,2032,15604,-105,130,-3
369924210,-3988,-984,16572,-33,300,110
369927680,-4056,1172,15600,-13,150,194
369931150,-3164,-972,16448,-239,107,-439
369934794,-3024,828,15580,-158,105,-188
369938385,-2784,1572,15772,-201,-44,-389
369942018,-2636,1512,15328,96,-77,82
369945290,-3520,964,15536,-29,103,120
369948674,-3392,-1100,16488,-88,307,-128
369952317,-3524,516,16208,-10,219,174
369955700,-2672,-200,15972,-334,374,-413
369959344,-2664,1340,15468,-114,254,-217
369962987,-3072,2020,15908,-86,-12,74
369966420,-4040,-1012,16304,130,-109,153
369970014,-3852,808,15552,43,-39,67
369973224,-3008,-748,16332,-30,-34,-92
369976694,-2532,860,15348,-288,238,-322
369980251,-3096,1636,15884,-132,-27,-256
369983894,-2684,976,15080,-110,308,29
369987277,-3632,1500,15600,-43,87,76
369990577,-3992,-1488,17012,-110,346,14
369994155,-3268,576,15800,-28,254,94
369997427,-2920,-528,16316,-219,68,-385
370000984,-2840,1372,15496,10,-146,79
370004367,-2948,1784,15592,26,-164,-29
370007837,-3700,-916,16512,-6,-20,4
370011047,-3192,332,15592,-192,252,-236
370014604,-2412,-280,16120,-186,157,-361
370018270,-2620,1540,15196,-302,309,-128
370021891,-2464,1644,15824,-153,254,-128
370025534,-2768,1520,15184,-35,37,20
370028831,-4052,920,15808,73,153,293
370032127,-3120,-844,16556,-104,146,-179
370035771,-3084,996,15596,-87,-6,-88
370039102,-2892,1164,16012,-128,51,-364
370042648,-2560,1800,15364,35,-188,26
370046007,-3628,828,15300,-28,32,158
370049304,-3428,-1124,16732,-158,273,-187
370053034,-3664,592,16356,65,152,208
370056330,-2684,-532,16168,-374,432,-402
370059974,-2780,1340,15532,-152,115,-238
370063617,-3148,2056,15876,-67,79,77
370067016,-4064,-1000,16212,89,-149,127
370070471,-3792,1056,15704,97,6,107
370073680,-3004,-960,16516,-195,-42,-349
370077324,-2768,616,15544,-225,246,-292
370080881,-2872,1564,16088,-165,110,-317
370084524,-2800,1216,15060,-70,137,32
370087907,-3536,1596,15588,-20,187,53
370091315,-4144,-1264,16792,-138,246,66
370094847,-3572,412,15900,7,196,149
370098057,-2896,-712,16328,-279,110,-441
370101700,-2964,1464,15440,52,-143,51
370105084,-2884,1616,15752,-29,-83,-63
370108554,-3544,-736,16348,32,-70,26
370111850,-3416,240,15716,8,174,136
370115060,-2404,-368,16096,-203,68,-394
370118640,-2428,1464,15156,-112,266,-77
370122174,-2584,1832,15680,-146,215,-114
370125817,-3844,-608,16192,23,-50,79
370129114,-3692,1800,15708,28,181,237
370132497,-3492,-1316,16628,-221,45,-400
370136140,-3460,720,15864,-110,95,-178
370139649,-2780,1264,16032,-57,-136,-160
370143278,-2512,1540,15372,55,-89,-30
370146637,-3320,1516,15420,-92,80,89
370149934,-3372,-1164,16500,-80,280,-67
370153490,-3848,604,16328,-237,389,-60
370156960,-2764,-628,16248,-381,335,-389
370160604,-2796,1280,15440,-114,293,-212
370164247,-2908,1964,15888,-85,-34,27
370167679,-3980,-896,16268,74,-146,139
370171101,-3736,1104,15316,53,-9,106
370174397,-3032,-960,16508,-173,-14,-353
370178041,-2904,580,15560,-248,340,-249
370181597,-2928,1392,15816,-186,1,-363
370185067,-2660,1432,15196,-75,270,27
370188451,-3336,1508,15484,103,39,222
370191858,-4056,-1352,16724,-67,246,61
370195304,-3740,484,15948,-134,244,-131
370198861,-3124,-956,16380,-226,31,-424
370202417,-2928,1452,15256,-4,-37,18
370205714,-2712,1492,15700,-47,-148,-122
370209357,-3700,-488,16312,81,-8,80
370212567,-3620,252,15892,-47,121,109
370215974,-2404,-556,16100,-223,148,-361
370219594,-2520,1692,15248,-304,397,-179
370223237,-2540,1824,15892,-119,183,-120
370226881,-2828,1084,15328,-13,67,-23
370230264,-3584,2240,15460,16,41,256
370233560,-3684,-1940,16864,119,-35,161
370237117,-3556,80,16028,-215,101,-271
370240622,-2728,-72,16360,-208,-42,-384
370244169,-2584,1056,15304,18,-22,-11
370247527,-2832,1820,15836,-140,8,-61
370250911,-3368,-820,16244,-11,332,62
370254294,-4120,332,16332,8,173,175
370257504,-2880,-520,16328,-286,388,-327
370261147,-2976,1020,15572,-102,43,-113
370264704,-2736,1960,15888,-106,-31,-75
370268309,-3784,-728,15968,108,-96,148
370271730,-3640,1264,15404,102,-74,97
370275114,-3024,-1076,16336,-142,73,-327
370278757,-3172,292,15752,-258,248,-264
370282314,-2928,1412,16044,-199,51,-406
370285871,-2604,1420,15336,-123,239,37
370289341,-3028,1936,15428,-124,163,-49
370292922,-4048,-756,16540,-23,289,161
370296368,-3824,1616,15532,26,99,244
370299664,-3320,-1296,16420,-221,137,-404
370303394,-3212,944,15644,-174,92,-174
370306864,-2768,1248,15808,-39,-144,-155
370310508,-2612,1468,15552,48,-64,32
370313804,-3476,1192,15176,-59,74,169
370317211,-2460,-728,16288,-42,338,-103
370320744,-3560,456,16156,-259,346,-168
370324301,-2812,-440,16096,-319,387,-416
370327945,-2684,1196,15360,-34,25,-46
370331328,-2972,2036,16004,-96,-33,20
370334711,-3972,-1008,16344,81,73,110
370338094,-3932,448,15892,55,-81,92
370341347,-3116,-1140,16396,-167,68,-368
370344947,-2384,1584,15456,-266,263,-281
370348591,-2900,1496,15848,-65,54,5
370351801,-3372,-452,16128,-58,270,26
370355184,-3472,1588,15332,96,106,266
370358567,-3320,-1076,16660,-362,403,-329
370362298,-3672,436,16020,-147,210,-132
370365906,-2812,1512,15960,-214,69,-412
370369411,-2948,1452,15200,17,-115,32
370372794,-3332,1508,15252,99,-82,134
370376178,-3716,-436,16208,32,7,88
370379301,-3552,56,15768,-171,249,-222
370382771,-2856,1132,15996,-151,125,-119
370386414,-2580,1488,15344,-174,173,-61
370389971,-3000,2136,15224,-133,207,-82
370393552,-3716,-308,16068,-26,197,174
370396997,-3696,1752,15508,41,52,282
370400294,-3516,-1508,16752,-224,199,-365
370404024,-3588,632,15952,-121,19,-126
370407494,-2892,920,16148,-83,-56,-239
370410964,-2408,1724,15332,-38,-66,-62
370414434,-3336,1496,15316,35,41,172
370417755,-2648,-916,16340,-75,384,-59
370421201,-3788,568,15960,-171,266,-38
370424671,-2564,948,15936,-319,412,-353
370428228,-2616,1264,15432,-70,-10,-129
370431784,-3388,2188,15284,-59,10,-19
370435168,-3816,-748,16104,50,22,94
370438377,-3976,460,16272,-37,41,-80
370441715,-2812,420,16132,-145,101,-332
370445231,-1964,1536,15252,-100,-56,-197
370448874,-3072,1376,15888,-70,63,-25
370452257,-3524,-492,16112,-31,197,80
370455640,-4312,520,16212,56,132,206
370458937,-3332,-1428,16864,-303,370,-266
370462667,-3112,1096,15708,-100,188,-64
370466273,-2676,1040,16068,-216,178,-254
370469867,-2884,1440,15284,0,-144,-40
370473251,-3320,1748,15192,146,-69,150
370476721,-3660,-416,16284,44,-67,101
370480104,-3532,380,15924,-114,275,-122
370483661,-2968,540,16196,-235,200,-359
370487217,-2500,1604,15536,-224,228,-124
370490886,-2748,1464,15936,-125,290,-93
370494418,-3600,-208,16036,-61,22,-34
370497801,-3568,2212,15292,51,89,219
370501097,-3692,-1796,16788,-152,90,-301
370504741,-3744,464,15780,-95,55,-140
370508124,-2720,764,16028,-106,-60,-230
370511681,-2304,1544,15508,-86,-63,-100
370515238,-3204,1812,15312,32,105,187
370518646,-3448,-704,16252,-107,261,17
370522091,-4144,496,16060,-83,314,6
370525301,-2476,844,15952,-366,449,-306
370528858,-2932,1056,15556,-116,70,-162
370532414,-3264,2476,15664,-147,60,-156
370535971,-3600,-28,15920,95,-92,178
370539268,-4152,312,16124,121,-20,105
370542693,-3136,-984,16480,-164,-35,-295
370546294,-2412,1284,15300,-160,240,-164
370549938,-2856,1184,16100,-126,45,-166
370553495,-2372,1668,15264,-158,159,-82
370557051,-2900,2084,15216,21,168,172
370560435,-3844,-244,16092,-7,149,222
370563818,-4064,-276,16232,-35,287,-63
370567348,-2440,1520,15852,-323,213,-474
370570931,-2840,1284,15468,36,-148,37
370574315,-3196,1860,15420,-97,-20,-216
370577871,-3536,156,15848,108,-150,172
370581341,-3512,1220,15532,49,70,199
370584638,-2500,-720,16444,-266,166,-400
370588281,-3812,536,16272,-178,272,-25
370591776,-2532,1256,16020,-228,323,-209
370595395,-2840,1132,15436,-32,27,-106
370598865,-3596,2104,15532,-3,169,268
370602248,-3808,-640,15912,70,-68,121
370605631,-3988,540,15976,-46,125,-82
370609015,-2880,352,16284,-200,39,-331
370612485,-2236,1568,15144,-71,1,-167
370615892,-3136,1856,15276,-21,46,148
370619251,-3300,-220,15948,-37,220,41
370622634,-4196,428,16392,-89,326,59
370625931,-2584,520,16088,-330,329,-305
370629488,-2952,1024,15648,-86,151,-167
370633044,-3168,2504,15524,-217,77,-251
370636601,-3524,376,15604,134,-120,184
370640071,-3992,488,15972,62,-24,112
370643409,-3276,-1060,16412,-116,-36,-272
370647098,-3552,8,15776,-139,314,-161
370650481,-2596,1200,15984,-92,-27,-161
370654038,-2544,1492,15332,-177,229,-91
370657595,-2728,2284,15084,14,123,172
370660978,-3872,-1564,16976,20,73,171
370664361,-4088,544,16284,-62,341,0
370667619,-2628,400,15948,-235,27,-344
370671041,-2764,1552,15332,-41,-4,-65
370674424,-3072,1784,15320,33,-189,78
370677807,-3716,-1152,16400,99,-84,120
370681277,-3860,256,15928,-116,206,-20
370684747,-2396,300,16160,-218,176,-351
370688304,-2792,1408,15424,-287,342,-174
370691972,-2532,1312,15988,-218,203,-223
370695591,-3296,336,15592,21,154,156
370698888,-3432,2560,15360,-9,-2,241
370702184,-4080,-1984,16864,-73,127,-205
370705828,-2820,1276,15308,-99,88,-95
370709211,-3008,432,16188,-99,-95,-274
370712681,-3040,920,15576,-135,93,-217
370716175,-3032,1964,15460,-29,-4,146
370719534,-3160,-1240,16676,-234,356,-276
370723264,-4060,432,16216,-43,182,109
370726648,-2500,388,16028,-276,410,-230
370730204,-2944,908,15724,-118,151,-252
370733761,-2572,1152,15952,-203,4,-256
370737231,-3472,208,15576,136,-13,194
370740618,-3944,584,15884,44,-130,101
370744039,-3444,-1284,16500,-84,46,-216
370747554,-2436,1124,15508,-194,292,-151
370751198,-2596,704,16196,-126,35,-217
370754668,-2608,1620,15440,-212,342,-116
370758311,-2676,2132,15416,33,73,143
370761608,-3996,-1580,16692,33,166,204
370765078,-4164,424,16064,-65,200,15
370768423,-2568,416,16012,-152,94,-335
370771844,-2968,1340,15364,-68,-39,-106
370775401,-3024,1952,15536,-144,-145,-280
370779131,-3196,508,15860,84,-66,143
370782428,-3704,308,15860,-35,24,166
370785724,-2884,-1176,16500,-186,239,-318
370789455,-2832,1368,15628,-176,330,-3
370792949,-2600,744,16132,-220,278,-274
370796481,-3124,656,15504,-103,158,-163
370800038,-3420,2340,15364,-1,27,241
370803334,-4060,-2048,16732,137,-13,170
370806891,-3972,500,16020,-59,15,-62
370810188,-2844,16,16092,-112,27,-301
370813571,-2224,1304,15428,-147,16,-235
370817152,-3128,2052,15556,-56,94,190
370820511,-3268,-48,15672,-47,274,34
370823808,-4192,560,16220,-23,222,155
370827191,-2572,140,15952,-318,477,-225
370830748,-2804,868,15644,-115,74,-256
370834218,-3156,2364,15732,-174,72,-257
370837774,-3428,548,15720,88,-149,164
370841181,-3996,628,15792,118,-146,93
370844576,-3476,-1256,16492,-138,12,-204
370848184,-2392,1116,15432,-139,196,-145
370851828,-2620,736,16080,-149,103,-220
370855384,-2608,1380,15340,-240,233,-169
370859028,-2672,2304,15484,-16,199,159
370862498,-3396,152,15664,39,64,173
370865711,-4104,732,16216,-28,257,48
370869053,-2644,24,16184,-178,134,-270
370872474,-2780,1292,15480,-77,-90,-155
370876031,-3000,1972,15440,-108,11,-261
370879588,-3356,612,15828,112,-182,155
370883058,-3820,400,15824,4,82,153
370886181,-2364,64,16000,-239,262,-288
370889651,-2892,1100,15800,-222,303,-166
370893319,-2524,708,15960,-303,341,-307
370896851,-3168,684,15240,64,-1,140
370900061,-3976,1196,15916,25,106,242
370903444,-4156,-1852,16848,-78,21,-131
370907001,-3036,948,15548,43,85,3
370910037,-2964,1644,15612,-180,-99,-336
370913681,-2972,1176,15516,138,-117,85
370917175,-3104,1944,15596,-109,40,125
370920621,-3356,-1296,16552,-138,278,-205
370924351,-4108,712,16416,-24,320,99
370927647,-2588,148,16136,-329,317,-385
370931204,-3068,604,15896,-100,200,-239
370934761,-2988,2504,15716,-57,-55,111
370938231,-3332,524,15544,164,-125,193
370941724,-4052,712,16000,18,40,33
370944859,-2984,-660,16244,-57,-77,-110
370948381,-2420,892,15376,-246,285,-338
370951937,-3112,1852,15544,-138,-15,-251
370955581,-2976,832,15480,6,252,86
370958704,-3752,1292,15900,-64,145,101
370962174,-4016,-1544,16892,-132,346,-3
370965734,-3600,492,16040,5,234,123
370968990,-2880,-712,16284,-256,71,-414
370972497,-2832,1700,15096,49,-104,76
370975880,-3232,1684,15440,119,-211,111
370979437,-3764,-1084,16516,-84,97,-125
370982994,-3808,648,15764,-69,180,59
370986290,-2560,-100,16160,-161,122,-350
370989934,-2692,1228,15640,-347,369,-237
370993602,-2496,2060,15504,-280,242,-319
370997221,-3064,792,15224,19,115,152
371000517,-4036,1284,15728,48,110,181
371003901,-4068,-1812,16728,-25,133,-128
371007544,-3172,948,15484,-9,15,-5
371010667,-2944,1524,15896,-129,-29,-342
371014311,-2812,1248,15520,43,-120,45
371017718,-3756,1008,15380,6,-53,160
371020990,-3376,-1352,16748,-182,309,-201
371024721,-4304,668,16148,6,136,137
371027930,-2524,-76,16068,-338,451,-392
371031487,-2776,1060,15188,-129,107,-210
371035130,-2832,2256,15960,-74,57,47
371038427,-4168,-1276,16372,92,-135,198
371042007,-4080,396,15948,58,-7,43
371045142,-2716,-248,16348,-210,-45,-370
371048750,-2672,812,15396,-162,113,-236
371052307,-2948,1836,15916,-107,126,-34
371055864,-2736,1224,15168,-12,131,61
371059247,-3544,1340,15684,42,225,211
371062630,-3972,-1208,16760,-156,300,-11
371066376,-3560,340,15752,23,170,124
371069570,-2920,-412,16344,-292,146,-407
371073214,-3080,1144,15356,62,-131,72
371076597,-2812,1832,15488,44,-105,-19
371080067,-3724,-864,16560,3,-87,-27
371083364,-3192,264,15580,-5,188,106
371086660,-2192,40,16176,-241,19,-402
371090043,-2552,1436,15072,-57,222,5
371093364,-3008,2068,15500,-171,207,-48
371096896,-3852,-740,16380,-17,208,140
371100367,-3900,220,16192,34,232,218
371103663,-3184,-1028,16660,-248,49,-399
371107306,-2848,1392,15356,-118,129,-179
371110950,-2720,1516,15868,-54,-173,-110
371114594,-2728,1404,15296,77,-130,82
371118001,-3636,1032,15584,-37,105,133
371121447,-3712,-1164,16612,-114,283,-113
371125177,-3516,652,16128,32,275,159
371128473,-2620,-232,16100,-371,316,-371
371132117,-2816,1100,15396,-87,191,-198
371135674,-2964,2216,15732,-103,3,28
371138970,-4072,-1208,16212,114,-14,89
371142464,-3996,752,15848,41,62,74
371145602,-3052,-664,16428,-193,-44,-342
371149207,-2372,1540,15228,-219,282,-304
371152850,-2820,1624,15720,-80,-11,16
371156234,-3496,-748,16468,-44,204,67
371159617,-3768,1380,15736,74,137,223
371163000,-2804,-784,16316,-134,294,-7
371166519,-3676,492,15980,-148,264,-176
371170027,-2700,1784,16072,-283,93,-415
371173584,-3100,1384,15256,97,-89,117
371176967,-3648,1152,15436,-18,-146,-34
371180523,-3864,-940,16456,44,4,11
371183647,-3232,328,15568,-236,256,-258
371187203,-2268,-80,15920,-196,63,-410
371190677,-2564,1328,15380,-139,239,-27
371194255,-2552,1884,15688,-136,156,-45
371197787,-3816,-764,16320,0,312,147
371201083,-3888,1284,15772,19,139,233
371204467,-3272,-1060,16560,-230,183,-396
371208197,-3252,968,15544,-187,46,-174
371211667,-2836,1464,15880,-26,-163,-128
371215314,-2628,1452,15288,38,-68,68
371218631,-3708,872,15580,-10,57,180
371221903,-2292,-464,16228,-131,350,-206
371225547,-3384,804,15912,-253,321,-133
371229103,-2784,-284,16148,-291,340,-342
371232747,-2792,1332,15388,-197,265,-281
371236391,-3052,2368,15736,-20,-59,145
371239861,-4072,-1460,16424,155,-33,195
371243441,-4088,820,15700,63,-43,58
371246662,-2984,-764,16380,-159,57,-322
371250184,-2648,736,15372,-278,204,-295
371253741,-2980,1828,15632,-181,12,-304
371257297,-2924,1036,15340,-64,240,52
371260681,-3648,1288,15620,-68,86,81
371263977,-4108,-1316,16832,-129,381,-7
371267582,-3572,184,15988,-156,185,-227
371271091,-2764,-148,16348,-259,105,-430
371274734,-3108,1156,15368,-139,52,-156
371278291,-2992,1608,15560,51,-185,-40
371281761,-3744,-888,16328,80,-59,169
371285144,-3988,308,15820,-10,158,83
371288441,-2120,72,15836,-256,144,-387
371291940,-3064,1164,15660,-275,285,-154
371295554,-2612,1812,15764,-284,358,-336
371299198,-2720,1148,15216,27,6,122
371302407,-3952,1324,15752,25,215,201
371305790,-4112,-1648,16676,-26,56,-87
371309261,-3180,796,15712,-151,14,-161
371312731,-2956,-284,16320,-145,67,-335
371316312,-2636,1392,15456,72,-189,24
371319670,-3660,912,15544,-40,82,205
371322967,-3492,-1364,16736,-152,279,-197
371326697,-3984,860,16012,50,197,166
371329994,-2688,-260,16196,-360,385,-416
371333637,-3156,812,15704,-115,143,-219
371337194,-3180,2048,15664,-87,73,73
371340494,-3916,-1084,16336,69,-170,143
371344071,-3984,728,15760,69,85,91
371347205,-2960,-548,16264,-196,-73,-351
371350814,-2696,824,15396,-218,228,-298
371354371,-2868,1952,15820,-194,86,-314
371357927,-2800,916,15252,-37,162,106
371361311,-3484,1384,15664,-60,217,14
371364694,-3940,-1060,16872,-97,227,36
371368212,-3636,192,15928,-131,311,-198
371371721,-3004,-392,16044,-291,82,-428
371375277,-3036,1164,15220,-93,-46,-125
371378834,-3140,1588,15532,-14,-130,-76
371382391,-3660,-788,16360,72,-177,101
371385861,-3912,640,15748,-23,201,99
371389157,-2292,-88,16100,-222,79,-420
371392652,-3068,924,15656,-253,397,-130
371396184,-2576,2072,15712,-318,388,-367
371399828,-2868,848,15416,54,31,85
371402951,-3956,1364,15640,-29,221,205
371406421,-4148,-1728,16632,0,-54,-86
371409804,-3108,884,15732,-193,113,-209
371413360,-2820,-360,16324,-178,-97,-365
371417029,-2520,1656,15424,80,-73,60
371420301,-3404,976,15580,-97,17,128
371423597,-3596,-1180,16624,-102,329,-128
371427327,-4076,1008,15916,-42,236,140
371430797,-2688,-360,16072,-347,339,-396
371434441,-3312,548,15752,-119,274,-235
371437997,-2952,2348,15808,-60,-75,72
371441404,-3216,740,15224,134,-86,162
371444764,-4088,832,15720,60,-30,99
371448009,-2976,-764,16512,-48,-34,-93
371451444,-2728,776,15396,-263,251,-333
371455000,-2972,1564,15972,-151,4,-302
371458471,-2880,1080,15200,-91,301,57
371461854,-3564,1524,15692,57,108,197
371465237,-3900,-1280,16796,-115,357,4
371468756,-3532,384,15888,-171,187,-189
371472264,-2872,-452,16268,-225,108,-372
371475907,-3116,1300,15456,-151,74,-190
371479464,-2788,1800,15464,-1,-177,-31
371482934,-3792,-908,16464,139,-89,159
371486404,-3800,580,15772,-81,161,82
371489700,-2260,28,16048,-189,157,-365
371493195,-2876,1120,15536,-312,323,-163
371496814,-2684,1896,15768,-72,215,-26
371500284,-3112,1052,15164,-28,71,87
371503581,-3976,1304,15644,105,144,263
371507051,-3380,-1044,16620,-29,112,-121
371510694,-3140,928,15612,-160,5,-170
371514077,-2748,-336,16288,-142,-13,-369
371517745,-2804,1468,15460,101,-214,69
371521191,-3040,1592,15504,-54,52,101
371524574,-3508,-1096,16456,-125,283,-144
371528304,-4068,668,16096,10,125,163
371531601,-2640,-212,16064,-371,437,-422
371535244,-3220,772,15656,-130,129,-220
371538801,-2968,2012,16000,-231,77,-349
371542381,-3180,1016,15372,51,-141,144
371545828,-4024,596,15828,117,-194,123
371549333,-3572,-1196,16532,-85,41,-182
371552855,-2436,828,15496,-145,212,-57
371556325,-2412,356,16080,-125,87,-243
371559795,-2912,1112,15332,-291,338,-194
371563438,-2448,2280,15500,-11,115,123
371566969,-3280,440,15400,17,158,175
371570205,-4224,916,16132,32,141,112
371573501,-2864,-488,16340,-288,165,-414
371577145,-2996,1064,15296,-115,-43,-173
371580788,-2876,1820,15700,-123,-58,-294
371584432,-2988,956,15624,73,-181,86
371587728,-3864,516,15648,-20,11,176
371591049,-3024,-1180,16532,-190,318,-242
371594755,-3164,960,15928,-20,181,108
371598138,-2612,4,16076,-330,436,-387
371601521,-2692,1444,15016,-154,130,-265
371605165,-3196,2372,15424,96,48,295
371608461,-4112,-1652,16828,-79,-2,-165
371612018,-4108,836,15828,59,46,42
371615141,-2940,-400,16392,-194,-48,-406
371618809,-2224,1284,15264,-183,117,-282
371622428,-3188,1780,15528,-113,81,107
371625898,-3188,652,15536,-36,175,92
371629195,-4148,628,16020,5,255,158
371632404,-2664,16,16052,-311,326,-363
371635874,-3284,608,15828,-126,190,-211
371639431,-2968,2268,15860,-262,75,-363
371643011,-3432,748,15372,99,-147,144
371646371,-3900,768,15548,78,-65,54
371649616,-3708,-1268,16644,-55,-78,-104
371653224,-2592,864,15636,-248,311,-304
371656781,-2284,452,16048,-176,-16,-335
371660338,-2732,1160,15280,-250,313,-147
371663981,-2684,2144,15600,-73,156,79
371667413,-4004,-1428,16816,13,34,164
371670748,-4120,704,15936,-29,305,98
371674044,-2852,-280,16220,-240,43,-400
371677601,-2956,1136,15516,-119,94,-170
371681158,-3008,1852,15288,9,-178,-22
371684541,-3152,968,15796,152,-163,177
371688011,-3912,712,15864,-88,131,37
371691332,-2336,-144,16184,-185,244,-242
371694951,-3064,948,16092,-294,398,-209
371698508,-2628,192,15960,-312,308,-396
371702065,-2912,1268,15160,25,77,114
371705361,-4148,892,15984,26,-27,253
371708658,-4064,-1704,16740,-15,63,-149
371712214,-3132,920,15664,19,63,75
371715341,-2824,1280,15788,-171,-46,-370
371719005,-2532,1772,15288,66,-122,86
371722364,-3172,1840,15588,-61,-5,132
371725747,-3404,-1128,16708,-95,377,-158
371729391,-4008,908,15956,-8,163,185
371732687,-2528,-304,16136,-358,397,-431
371736331,-3276,656,15808,-181,258,-256
371739888,-2944,2248,15740,-10,-35,97
371743294,-3292,764,15576,104,-84,185
371746654,-3900,900,15884,48,-21,92
371749899,-2924,-892,16488,-157,70,-365
371753421,-2620,812,15252,-245,202,-280
371756977,-3032,1600,15912,-66,111,41
371760361,-2696,1176,15232,-82,235,41
371763744,-3616,1376,15504,57,133,203
371767175,-3148,-976,16520,-96,352,56
371770510,-3520,244,15816,-166,212,-209
371774067,-2788,1816,15884,-250,125,-427
371777710,-2976,1196,15344,58,-185,94
371781094,-3724,1348,15372,-20,-136,-55
371784651,-3800,-760,16112,46,-51,36
371787947,-3204,164,15708,-39,134,77
371791268,-2404,-112,16148,-238,136,-405
371794887,-2536,1372,15216,-278,305,-180
371798531,-2748,1940,15680,-67,297,-19
371802001,-3976,-932,16524,-18,16,71
371805297,-3848,1460,15760,40,181,229
371808680,-3236,-1244,16728,-302,94,-422
371812324,-3292,828,15620,-128,22,-135
371815818,-2860,1272,15784,-145,37,-365
371819351,-2524,1480,15476,39,-190,16
371822734,-3752,1184,15416,4,173,222
371826030,-3556,-1280,16764,-114,311,-174
371829760,-3680,844,15984,16,140,175
371833057,-2744,-484,16160,-378,461,-382
371836701,-2728,1356,15388,-23,-36,-50
371840171,-3020,1988,15764,-56,73,68
371843490,-3876,-1020,16152,68,-123,53
371846937,-3664,392,15756,86,14,108
371850182,-3096,-828,16480,-171,-47,-373
371853790,-2232,1556,15368,-206,230,-239
371857434,-3044,1448,16120,-135,53,-39
371860904,-2652,1508,15072,-75,146,75
371864287,-3488,1256,15632,77,198,182
371867719,-3064,-804,16328,-123,262,19
371871140,-3564,344,15892,-62,260,-139
371874610,-2676,1672,15772,-283,141,-456
371878254,-2952,1408,15536,64,-162,116
371881724,-3516,1436,15324,-25,-97,-74
371885194,-3476,-592,16272,39,-67,48
371888490,-3244,24,15700,-219,367,-248
371891985,-2148,-124,16024,-240,45,-419
371895517,-2320,1500,15356,-127,307,-19
371899074,-2596,1492,15764,-193,213,-130
371902717,-3812,-216,16264,3,-31,69
371905927,-3940,1116,15884,-14,264,198
371909397,-3216,-996,16464,-253,26,-431
371912954,-3344,880,15708,-101,127,-105
371916535,-2852,1120,15988,-196,-15,-355
371920154,-2560,1608,15352,33,-87,-2
371923450,-3780,1092,15520,-32,81,201
371926834,-3520,-1332,16772,-137,311,-138
371930564,-3708,612,16224,23,256,145
371933861,-2792,-552,16176,-326,337,-371
371937504,-2760,1260,15412,-109,227,-237
371941171,-2996,2092,15604,-111,-8,15
371944531,-3876,-976,16200,134,-196,147
371948088,-3836,896,15680,7,27,68
371951159,-2920,-800,16308,-137,-76,-347
371954767,-2696,760,15372,-218,303,-245
371958324,-3092,1564,16028,-60,-56,-3
371961707,-2620,1296,15232,-80,282,55
371965091,-3464,1400,15644,72,64,227
371968436,-2952,-892,16504,-89,292,82
371971770,-3716,304,16044,-140,234,-164
371975327,-2704,1760,15980,-297,162,-442
371978971,-2944,1404,15392,63,-167,97
371982354,-3592,1292,15340,15,-107,-54
371985824,-3612,-592,16404,35,-101,59
371989207,-3316,212,15684,-212,362,-254
371992788,-2272,-44,16036,-235,128,-411
371996321,-2544,1604,15448,-303,286,-192
371999964,-2552,2072,15676,-104,289,-9
372003434,-2872,876,15280,22,-16,36
372006644,-3808,1580,15756,34,210,262
372010027,-3436,-1336,16464,-246,58,-418
372013671,-3224,972,15644,-103,60,-172
372017165,-2892,1132,15908,-168,-11,-331
372020784,-2680,1596,15596,30,-165,10
372024167,-3624,1068,15476,-26,66,176
372027551,-3608,-1380,16684,-132,270,-151
372031281,-3604,628,16080,64,213,134
372034577,-2680,-244,16036,-397,326,-373
372038221,-2700,1236,15228,-131,162,-257
372041888,-2960,2332,15756,-68,8,82
372045074,-4088,-1328,16432,97,-220,190
372048631,-3888,820,15716,80,64,85
372051789,-2792,-720,16296,-207,-72,-364
372055397,-2536,900,15492,-218,276,-273
372058954,-3012,1616,15848,-100,30,63
372062337,-2848,1192,15332,-56,155,75
372065724,-3576,1224,15576,19,195,208
372069206,-2904,-772,16316,-135,235,29
372072574,-3596,140,15836,-164,330,-221
372076131,-2708,2144,15732,-316,68,-439
372079687,-3052,1168,15384,99,-75,129
372083071,-3672,1388,15344,-32,-97,-54
372086540,-3728,-1076,16324,45,-38,-7
372089924,-3064,564,15396,-88,252,49
372093245,-2244,-28,15924,-187,3,-364
372096604,-2688,1524,15272,-76,240,34
372099987,-3092,1852,15428,-132,182,-26
372103544,-3976,-816,16488,5,238,168
372106840,-3888,176,16272,4,182,254
372110050,-2496,1452,15804,-237,117,-441
372113693,-2952,1304,15392,17,-152,31
372117101,-2760,1316,15764,-29,-161,-137
372120720,-3504,-332,16116,52,-30,115
372124103,-3584,1040,15588,-28,43,159
372127487,-2428,-616,16376,-221,223,-423
372131130,-3464,824,16144,-282,316,-136
372134687,-2644,1532,16088,-131,296,-130
372138330,-2712,1036,15384,-42,39,-35
372141737,-3792,1776,15544,-40,-99,163
372145184,-4020,-1420,16468,33,101,-11
372148654,-3628,832,15768,-116,19,-119
372152163,-3136,-964,16344,-133,14,-335
372155680,-2308,1880,15496,-284,257,-354
372159324,-3088,1668,15616,-34,-1,103
372162707,-3624,-1092,16468,-61,284,61
372166225,-3712,1316,15888,42,86,207
372169473,-2860,-888,16356,-388,488,-395
372173117,-3380,300,15988,-128,174,-237
372176674,-2956,2056,15692,-234,30,-423
372180231,-3044,1064,15548,63,-149,114
372183701,-3700,1096,15484,20,-174,-14
372187171,-3660,-924,16536,10,-16,23
372190471,-2920,348,15724,-251,243,-323
372194048,-2260,160,15932,-165,137,-358
372197581,-2572,1256,15204,-321,319,-165
372201224,-2580,2096,15744,-77,193,-27
372204694,-4096,-904,16676,47,58,176
372207991,-4060,820,15960,21,180,178
372211287,-2808,-328,16492,-323,129,-452
372214930,-2876,1068,15504,-124,-28,-105
372218599,-2848,1676,15572,-160,12,-359
372222131,-2624,1380,15572,108,-226,153
372225688,-3064,1812,15488,-68,43,168
372229071,-3220,-1332,16684,-191,308,-235
372232801,-4224,600,16224,-16,194,126
372236184,-2660,-44,15996,-335,456,-373
372239741,-3056,748,15596,-118,79,-256
372243234,-3040,2484,15704,-21,57,176
372246594,-3424,452,15536,79,-97,196
372249891,-4096,756,15848,56,6,75
372252962,-3036,-576,16328,-198,-11,-378
372256571,-2376,992,15464,-218,141,-328
372260127,-3140,1792,15588,-126,105,99
372263597,-2984,884,15444,3,144,91
372266769,-3740,1272,15952,51,219,195
372270103,-2792,-868,16212,-346,336,-348
372273747,-3332,188,16020,-171,275,-332
372277304,-2932,2424,15812,-269,100,-401
372280947,-3308,596,15708,135,-177,143
372284417,-3760,1392,15200,7,-39,-2
372287627,-3740,-1088,16432,5,-108,3
372290948,-2828,672,15720,-258,359,-315
372294480,-2340,104,16088,-203,53,-371
372297950,-2600,1468,14988,-63,248,15
372301334,-3212,1748,15688,-118,217,-48
372304890,-4072,-744,16436,-35,206,167
372308360,-3760,-156,16092,21,299,187
372311744,-2880,-352,16412,-285,9,-456
372315214,-2992,988,15472,-82,105,-113
372318708,-2864,1692,15564,-62,-149,-168
372322327,-2684,1384,15596,138,-192,135
372325884,-3836,712,15632,-65,150,118
372329267,-2276,-328,16124,-113,235,-219
372332911,-3472,804,16028,-283,385,-108
372336467,-2444,-52,15968,-334,326,-413
372340024,-2868,1184,15224,-87,162,-239
372343604,-3144,2272,15884,-38,-43,135
372347051,-3972,-1396,16512,105,-158,154
372350694,-3996,740,15556,47,58,71
372353852,-3060,-636,16196,-179,-51,-337
372357461,-2384,1024,15484,-229,254,-290
372361104,-3048,1820,15692,-170,35,-288
372364661,-3000,956,15284,-11,224,113
372368093,-3772,1180,15804,-61,202,96
372371428,-4056,-1412,16848,-159,276,8
372374897,-3388,372,15756,-141,294,-217
372378454,-2748,-88,16200,-261,15,-418
372381924,-3164,1108,15616,-80,16,-133
372385394,-2944,1804,15432,-26,-172,-28
372388951,-3564,-840,16336,145,-176,117
372392532,-3840,488,15604,-80,234,68
372395804,-2288,-40,16164,-170,30,-375
372399274,-3116,1168,15744,-275,420,-128
372402918,-2628,1856,15684,-285,273,-330
372406561,-3008,836,15432,38,90,90
372409684,-3924,1340,15596,28,149,234
372413068,-4128,-1912,16760,-8,18,-105
372416562,-3160,1080,15504,-177,72,-176
372420094,-2988,-400,16380,-130,-129,-307
372423825,-2688,1348,15524,-170,181,-312
372427468,-3044,2144,15508,-72,-30,162
372430938,-3404,-1452,16896,16,219,119
372434408,-3972,840,16144,-44,190,121
372437791,-2600,-60,16196,-217,322,-115
372441371,-3324,420,15784,-158,251,-258
372444905,-2992,2420,15712,-264,21,-394
372448462,-3120,764,15588,152,-66,189
372451845,-3912,792,15772,-4,-136,-1
372455176,-3528,-936,16340,-24,-54,-91
372458611,-2628,676,15516,-293,224,-343
372462168,-2108,676,16004,-163,-13,-314
372465774,-2860,940,15208,-230,377,-95
372469195,-2536,2020,15520,-83,77,-20
372472578,-4116,-1116,16760,76,53,227
372475961,-4228,256,16120,-57,213,113
372479345,-2636,304,16096,-240,85,-408
372482815,-2888,1208,15416,-97,13,-22
372486198,-2980,1640,15640,-43,-123,-118
372489841,-2940,1360,15548,100,-63,127
372493336,-4088,252,16024,-49,116,81
372496608,-2116,88,15888,-179,358,-278
372500078,-3176,828,15716,-289,280,-186
372503635,-2596,2124,15784,-315,350,-376
372507278,-2804,908,15288,5,5,96
372510228,-4132,1328,15856,37,186,170
372513611,-3248,-1124,16504,-19,58,-56
372517105,-3236,904,15656,-157,54,-161
372520551,-2948,1192,15928,-146,55,-388
372524108,-2592,1620,15524,64,-222,18
372527491,-3480,1120,15552,-105,58,85
372530874,-3448,-1136,16408,-115,293,-143
372534604,-3708,600,16108,58,98,227
372537814,-2656,-432,16212,-395,460,-386
372541481,-2852,1196,15384,-113,120,-231
372545101,-2828,2144,15840,-58,72,69
372548398,-3956,-1016,16168,99,-174,167
372551954,-3912,888,15728,63,39,116
372555203,-3060,-876,16296,-210,-50,-358
372558807,-2764,672,15724,-222,168,-313
372562364,-3004,1652,15948,-190,140,-298
372566068,-2812,1304,15312,-56,107,46
372569391,-3500,1244,15732,1,169,120
372572688,-4068,-1276,16924,-138,242,9
372576158,-3572,264,16052,-33,246,-117
372579628,-2808,-592,16272,-316,103,-447
372583271,-2996,1440,15448,-147,1,-180
372586741,-2824,1548,15600,-5,-79,-75
372590124,-3608,-672,16344,39,-112,30
372593532,-3784,556,15748,-48,245,94
372596804,-2188,-148,15988,-221,38,-438
372600361,-2592,1480,15324,-252,366,-132
372604004,-2608,1872,15764,-139,185,-71
372607561,-2944,1164,15392,32,-30,98
372610857,-3968,1448,15736,-18,226,195
372614327,-3404,-1272,16568,9,-11,-45
372617735,-3288,708,15716,-162,140,-208
372621268,-2900,1364,15796,-185,-94,-359
372624911,-2548,1572,15332,86,-83,37
372628208,-3560,1124,15448,-86,59,143
372631591,-3520,-1140,16608,-87,293,-162
372635234,-3512,576,15828,-22,274,176
372638617,-2744,-324,16172,-340,314,-394
372642284,-2756,1352,15320,-126,274,-221
372645905,-2976,2244,15852,-55,-80,77
372649288,-3108,1000,15436,134,-90,168
372652758,-3860,944,15852,23,-26,82
372656002,-2968,-868,16344,-164,33,-347
372659524,-2696,672,15384,-268,301,-288
372663081,-2960,1664,15852,-172,-4,-346
372666686,-2768,1084,15244,-49,300,69
372670021,-3480,1428,15632,-76,107,23
372673404,-4020,-1040,16880,-48,290,56
372676874,-3616,208,15824,-142,218,-214
372680431,-2944,-308,16244,-269,55,-441
372683988,-2956,1344,15168,-118,71,-100
372687545,-3000,1672,15700,-8,-185,-90
372691039,-3600,-752,16364,108,-86,139
372694485,-3816,484,15816,-50,129,68
372697781,-2204,120,16068,-175,142,-389
372701338,-2988,1004,15816,-307,350,-133
372704981,-2796,1848,15828,-297,287,-343
372708625,-2904,996,15516,24,66,71
372711748,-3848,1480,15736,20,176,218
372715131,-4240,-1856,16644,38,80,-70
372718539,-3144,884,15856,-195,15,-185
372721984,-2844,1424,15612,-155,-59,-346
372725628,-2684,1340,15500,56,-123,85
372729011,-3636,1016,15572,-89,-28,136
372732481,-3500,-1056,16652,-133,399,-150
372736211,-4128,744,16100,33,130,147
372739508,-2492,-232,16188,-349,444,-389
372743175,-3280,604,15628,-137,204,-204
372746708,-3092,2100,15832,-22,0,73
372749918,-4008,-1024,16268,67,-23,148
372753388,-4068,704,15684,66,-16,82
372756633,-2948,-816,16624,-190,39,-376
372760154,-2620,744,15648,-260,201,-285
372763711,-2864,1884,15804,-145,78,-358
372767316,-2952,1016,15204,-53,183,83
372770651,-3560,1292,15672,-58,173,69
372774034,-4104,-1260,16720,-130,314,21
372777591,-3488,340,15916,-65,183,-193
372781061,-2916,-324,16236,-247,133,-431
372784705,-2912,1184,15372,-155,6,-149
372788175,-3012,1720,15408,67,-117,-34
372791669,-3764,-812,16276,60,-100,90
372795028,-3912,328,15976,-66,157,63
372798324,-2240,216,16072,-225,98,-374
372801794,-2600,1384,15272,-291,260,-204
372805438,-2604,2168,15564,-52,236,48
372808821,-3276,596,15452,17,-25,126
372812117,-4012,1192,15748,58,239,204
372815504,-3008,-840,16560,-81,40,-158
372818995,-2960,1072,15696,-134,49,-201
372822528,-2896,1444,15716,-112,-26,-268
372826171,-2864,1216,15456,73,-168,39
372829554,-3676,776,15604,-36,70,164
372832851,-3324,-1376,16672,-155,249,-231
372836581,-3404,896,15716,-4,252,76
372839791,-2420,252,16208,-352,327,-354
372843371,-2940,956,15228,33,27,35
372846471,-3588,1624,15532,-42,36,100
372849854,-4064,-1496,16564,39,-41,-4
372853237,-3312,624,15808,-218,120,-222
372856829,-2792,-244,16384,-183,-127,-379
372860524,-2668,1448,15472,-186,201,-255
372864168,-2980,1912,15616,-58,-7,74
372867512,-3640,-1252,16636,8,191,114
372870847,-3932,1016,15892,-61,241,94
372874231,-2856,-388,16180,-293,365,-333
372877874,-3248,360,15816,-183,287,-285
372881431,-2992,2456,15536,-270,8,-383
372884901,-3212,896,15464,151,-110,192
372888371,-3820,976,15524,-33,-100,7
372891697,-3660,-1140,16628,33,-66,-61
372895137,-2664,568,15596,-295,258,-352
372898694,-2332,632,16096,-156,11,-333
372902164,-2916,872,15292,-46,282,79
372905460,-2652,1992,15612,-64,144,50
372908844,-3952,-1244,16796,-69,292,31
372912314,-3520,392,16032,-25,263,98
372915614,-2864,-344,16244,-226,28,-402
372919192,-3056,1220,15464,-141,80,-165
372922724,-2936,1828,15324,32,-205,-9
372926107,-3744,-1104,16344,-2,39,-1
372929403,-3728,520,15864,-90,143,62
372932700,-2292,8,16056,-187,136,-375
372936083,-2616,1480,15184,-139,130,-28
372939640,-2644,2136,15788,-44,156,38
372943046,-3924,-1048,16672,-92,287,66
372946493,-4080,1072,15872,57,126,233
372949877,-3008,-864,16408,-269,163,-435
372953520,-3172,1040,15380,-127,-6,-168
372957112,-2984,1412,15816,-109,-26,-301
372960720,-2628,1456,15580,47,-146,53
372964104,-3676,724,15732,-11,-16,170
372967536,-3260,-1344,16520,-192,387,-273
372971217,-3268,900,15996,-31,167,124
372974600,-2524,60,16068,-317,410,-389
372978070,-2836,1152,15204,-124,178,-249
372981714,-2964,2372,15712,11,-15,185
372985097,-4272,-1628,16416,139,-65,209
372988654,-4032,568,15816,21,-26,-2
372991888,-2816,-284,16228,-164,49,-338
372995420,-2440,1004,15460,-214,140,-326
372999064,-2872,1944,15548,-132,-8,-259
373002621,-3000,860,15280,-31,213,138
373006004,-4012,876,16112,-8,126,137
373009300,-3776,-1456,16848,-225,400,-101
373013031,-3448,456,15808,-34,220,70
373016352,-2692,236,16208,-211,75,-382
373019797,-3176,1076,15212,69,-206,159
373023267,-3168,1924,15264,112,-148,74
373026737,-3736,-1300,16652,-66,-12,-115
373030381,-3792,340,15756,-121,211,22
373033764,-2440,340,15964,-154,76,-321
373037234,-2736,1416,15772,-288,260,-150
373040901,-2800,2080,15440,-230,340,-269
373044521,-3200,516,15696,3,26,154
373047644,-4000,864,15948,22,243,122
373050940,-2968,-388,16256,-114,102,-216
373054584,-2784,1188,15504,-125,-5,-166
373058176,-2824,236,16268,-105,-5,-273
373061611,-2952,1144,15484,109,-207,89
373065081,-3004,2028,15380,29,45,243
373068479,-3172,-1464,16640,-266,289,-330
373072107,-4020,764,16248,-38,210,22
373075404,-2436,352,15940,-319,353,-338
373078961,-3036,964,15512,-99,119,-227
373082431,-3416,2260,15696,-26,73,210
373085814,-4028,-1760,16672,95,-122,176
373089371,-4148,464,16200,32,101,-17
373092691,-2856,-252,16488,-153,13,-244
373096224,-2240,1248,15436,-190,92,-263
373099781,-3044,1808,15700,-112,85,-177
373103337,-3136,468,15460,-28,220,94
373106634,-4100,668,16188,99,168,215
373109930,-3756,-1640,16980,-298,348,-187
373113661,-3236,772,15672,-19,254,-12
373117068,-2544,540,16044,-255,50,-346
373120514,-3324,772,15396,-11,-88,-73
373123897,-3172,1808,15164,51,-96,72
373127193,-3496,-1220,16408,-70,-25,-144
373130837,-3912,36,15932,-151,323,-92
373134220,-2432,572,15896,-142,-47,-250
373137777,-2568,1464,15512,-226,321,-157
373141444,-2624,2124,15448,-202,266,-213
373145064,-3436,184,15692,53,70,212
373148274,-4248,612,16000,-42,265,30
373151570,-2640,172,16256,-149,50,-324
373155040,-2760,1512,15348,-106,80,-108
373158636,-2996,512,16184,-130,-160,-291
373162241,-3116,804,15772,123,-70,149
373165627,-3276,1728,15260,-41,79,220
373169055,-2828,-1220,16788,-212,203,-355
373172737,-4148,532,16276,-118,371,10
373176121,-2600,640,16124,-253,262,-300
373179677,-2964,1016,15436,-35,137,-181
373183234,-3452,2316,15476,18,17,267
373186531,-3564,-244,15760,145,-102,194
373190087,-4028,300,15936,-111,115,-61
373193582,-3304,-1152,16536,-115,-70,-291
373197287,-2228,1392,15228,-178,359,-237
373200931,-2888,1320,16176,-83,-60,-112
373204488,-2636,1528,15340,-113,203,-26
373208044,-3116,1852,15644,-8,148,138
373211428,-3860,-584,16152,-28,151,149
373214898,-3836,392,15888,-92,346,-83
373218306,-2592,1084,15948,-225,8,-400
373221751,-2776,1416,15496,-12,12,5
373224961,-3296,1688,15208,71,-178,72
373228344,-3352,-1208,16740,121,-70,156
373231901,-3820,-160,15840,-218,303,-168
373235544,-2328,-616,16472,-260,131,-467
373239188,-2468,1532,15416,-194,382,-86
373242768,-2648,1280,16048,-181,234,-156
373246388,-2860,1116,15276,6,-9,-32
373249598,-3572,1968,15468,-31,125,252
373253068,-3728,-1756,16828,114,-70,70
373256538,-3640,396,15844,-146,168,-154
373260130,-2744,1008,15848,-205,-62,-351
373263738,-2352,1608,15424,3,-8,-62
373266996,-3304,1472,15312,-75,43,225
373270331,-3480,-976,16388,-54,331,-34
373273801,-4256,424,16312,-189,308,-58
373277271,-2896,-868,16456,-345,359,-342
373280915,-2840,1224,15248,-64,130,-173
373284471,-2940,1948,16128,-110,-40,-53
373288028,-3792,-572,16108,89,-159,111
373291523,-3612,1292,15092,42,-25,121
373294881,-3204,-1120,16572,-139,-50,-338
373298612,-2976,512,15644,-298,381,-266
373302168,-2252,52,15932,-198,22,-407
373305552,-2580,1520,15172,-72,276,22
373308935,-3164,1720,15432,-116,179,-12
373312492,-4076,-916,16256,-32,274,87
373315899,-3668,412,15812,-7,190,219
373319171,-2988,-852,16592,-223,50,-420
373322728,-2996,1412,15488,-6,-76,-2
373326025,-3324,1704,15148,-58,-169,-158
373329668,-3552,-228,16076,72,-16,140
373333051,-3696,552,15544,-78,74,156
373336348,-2248,-368,16052,-194,230,-405
373339991,-2492,1444,15556,-268,335,-147
373343658,-2596,1780,15948,-109,231,-102
373347278,-2688,1264,15108,-36,94,3
373350488,-3932,1680,15668,72,88,268
373353785,-3376,-1480,16784,13,75,-4
373357081,-3408,724,15668,-147,23,-139
373360586,-2832,1024,16056,-61,-41,-186
373364108,-2400,1784,15564,-3,-128,-39
373367626,-3436,1424,15416,-20,134,195
373371048,-3660,-1212,16548,-77,306,-70
373374604,-3748,636,16228,-215,352,-47
373378075,-2840,-688,16228,-325,468,-369
373381718,-2844,1144,15492,-133,164,-232
373385362,-2736,2248,15884,-70,47,25
373388658,-3976,-1020,16088,77,-153,144
373392239,-3740,944,15684,66,-45,80
373395425,-3184,-936,16468,-162,-14,-326
373399068,-2904,612,15584,-229,220,-304
373402625,-2908,1496,15816,-169,68,-354
373406182,-2640,1456,15376,-102,157,36
373409652,-3388,1360,15608,-10,135,45
373413035,-3992,-1132,16708,-168,302,42
373416616,-3628,332,15888,10,170,153
373419888,-2912,-616,16544,-261,144,-422
373423532,-2828,1272,15340,-141,35,-118
373427088,-2984,1236,15764,-19,-85,-196
373430645,-3768,-172,16188,75,-151,127
373434115,-4052,-188,15844,-32,183,95
373437498,-1904,624,15920,-262,433,-394
373441078,-3508,668,15844,-180,292,28
373444438,-2404,1720,15884,-348,468,-453
373448082,-2552,1956,14828,47,-81,110
373451465,-4400,700,15916,92,-36,343
373454762,-3924,-1760,16688,-100,76,-219
373458405,-3204,892,15512,46,-7,63
373461563,-2828,1112,15980,-193,48,-390
373465085,-2428,1896,15168,36,-162,28
373468517,-3704,824,15528,-26,63,176
373471765,-3596,-1308,16676,-127,246,-159
373475495,-3588,612,16056,15,181,165
373478791,-2696,-392,16200,-359,353,-374
373482435,-2696,1248,15340,-115,184,-271
373486078,-2936,2452,15708,-101,17,111
373489548,-3288,888,15440,123,-159,155
373493043,-4120,884,15756,79,56,104
373496228,-3024,-756,16544,-208,-53,-387
373499872,-2608,732,15488,-217,258,-302
373503428,-2964,1764,15864,-179,47,-323
373506985,-2844,1056,15232,-27,165,76
373510368,-3460,1364,15636,-19,250,88
373513752,-4176,-1456,16864,-132,244,41
373517333,-3524,448,15756,14,262,117
373520605,-2720,-324,16308,-305,30,-426
373524161,-3048,1124,15432,-111,3,-145
373527631,-2856,1804,15552,-33,-89,-51
373531102,-3756,-964,16528,61,-82,13
373534398,-3840,452,15772,-104,282,28
373537781,-2200,44,15928,-156,4,-348
373541101,-2660,1384,15376,-304,419,-197
373544721,-2440,2308,15724,-99,112,39
373548105,-4064,-1264,16500,69,28,112
373551488,-3892,1576,15744,-43,159,169
373554958,-3216,-1148,16592,-206,112,-374
373558688,-3268,860,15524,-170,125,-209
373562280,-2888,-188,16300,-151,-96,-371
373565949,-2768,1456,15400,88,-83,96
373569185,-3612,940,15720,-78,-4,103
373572481,-3476,-1172,16700,-91,341,-126
373576125,-3532,648,16164,-16,211,149
373579508,-2564,-140,16180,-331,383,-373
373583151,-2932,1192,15380,-83,212,-219
373586708,-3108,2224,15804,-56,10,125
373590092,-4188,-1252,16284,140,-136,205
373593760,-3932,840,15732,28,-16,54
373596945,-3012,-728,16376,-24,-54,-95
373600415,-2456,792,15472,-276,241,-323
373603972,-3032,1828,15816,-157,-23,-273
373607615,-2804,744,15252,-52,269,52
373610912,-3728,1800,15616,-92,90,36
373614208,-4068,-1296,17024,-50,372,93
373617703,-3392,188,15968,-211,232,-319
373621235,-2748,248,16056,-244,18,-381
373624705,-3236,764,15556,54,-96,135
373628001,-3684,1344,15432,-49,-132,-87
373631558,-3672,-868,16444,85,-19,69
373634855,-2988,224,15680,-100,191,46
373638238,-2164,372,15940,-135,53,-348
373641731,-2628,1224,15208,-150,178,-27
373645265,-2488,1992,15756,-102,203,-86
373648821,-4156,-792,16524,56,43,175
373652118,-4052,812,16068,7,137,197
373655328,-3040,-492,16360,-275,153,-430
373658971,-2844,980,15360,-144,-19,-135
373662563,-2956,1556,15648,-43,-47,-133
373666133,-2676,1464,15412,84,-171,65
373669468,-3776,948,15452,-43,160,161
373672851,-2140,-540,16164,-151,370,-214
373676495,-3688,884,16088,-199,332,-54
373679965,-2636,-460,16164,-350,464,-375
373683608,-2616,1484,15232,-176,184,-330
373687252,-3024,2416,15704,24,19,206
373690552,-3972,-1600,16696,-31,-23,-84
373694129,-3816,1228,15428,59,5,84
373697228,-3224,-1076,16452,-216,-21,-367
373700958,-2516,968,15520,-285,208,-372
373704515,-3152,1596,15880,-86,64,131
373707898,-2904,772,15360,-97,195,19
373711195,-3612,1560,15704,107,163,223
373714665,-2940,-1044,16548,-155,362,52
373718246,-3544,284,15776,-134,230,-233
373721778,-2752,-4,16120,-221,120,-372
373725248,-3120,1064,15480,62,-171,99
373728631,-3684,1328,15300,36,-61,-32
373732015,-3664,-860,16524,32,-104,34
373735398,-3120,336,15620,-238,343,-253
373738955,-2256,128,15948,-212,79,-360
373742448,-2760,1208,15216,-274,283,-133
373746068,-2452,2100,15676,-101,252,-31
373749625,-4048,-992,16420,38,-65,124
373753008,-4076,1332,15904,46,247,223
373756391,-3172,-1068,16600,-49,58,-130
373759948,-3052,900,15600,-131,81,-176
373763453,-3020,1456,15604,-218,16,-364
373767023,-2660,1496,15440,104,-220,61
373770445,-3668,984,15592,-69,128,133
373773828,-3448,-1264,16516,-107,219,-188
373777558,-4112,808,16160,42,214,181
373780855,-2560,-224,16060,-395,374,-444
373784498,-2840,1168,15268,-102,101,-251
373788142,-2944,2232,15772,-84,101,90
373791549,-3300,780,15356,103,-190,158
373794995,-3912,688,15704,82,73,82
373798118,-2916,-616,16512,-179,-96,-353
373801762,-2532,872,15552,-207,244,-318
373805318,-3172,1812,15852,-164,81,-276
373808875,-2756,1036,15208,-54,181,37
373812258,-3772,1300,15804,34,192,127
373815666,-4140,-1536,17040,-178,301,2
373819112,-3432,480,15808,-117,288,-198
373822668,-2776,-196,16244,-281,58,-396
373826225,-3120,1216,15568,-124,-41,-160
373829869,-2736,2048,15524,-4,-81,-10
373833252,-3824,-1160,16652,141,-223,141
373836895,-3800,640,15720,-60,282,93
373840195,-2256,-76,15772,-204,226,-273
373843772,-2992,1180,15640,-266,368,-162
373847392,-2584,360,16068,-302,419,-370
373850949,-2924,1028,15356,47,-34,104
373854332,-3324,2356,15696,-4,52,164
373857629,-4116,-1592,16840,-34,-14,-106
373861272,-4012,516,15896,17,63,3
373864343,-2984,-280,16356,-165,18,-375
373867913,-2800,1320,15524,80,-143,91
373871248,-3072,1860,15580,-100,119,120
373874805,-3316,-1224,16664,-85,221,-136
373878449,-3932,928,16144,47,229,159
373881745,-2672,-268,16088,-336,327,-392
373885389,-3084,676,15788,-96,178,-195
373888859,-3048,2044,16068,-109,12,35
373892266,-3240,988,15512,95,-189,127
373895625,-3876,860,15708,79,88,93
373898748,-3076,-816,16508,-190,-44,-343
373902392,-2640,780,15736,-215,293,-273
373905948,-2944,1512,15908,-181,60,-327
373909505,-2676,1368,15120,-42,172,63
373912888,-3556,1344,15784,-6,204,107
373916296,-4236,-1264,16648,-155,293,8
373919742,-3696,224,15936,-111,289,-141
373923298,-2808,-608,16328,-306,97,-454
373926855,-2940,1308,15288,-91,-3,-167
373930325,-2904,1664,15604,-39,-126,-63
373933882,-3768,-976,16364,92,-200,103
373937352,-3644,764,15640,-61,262,106
373940758,-2260,-300,16144,-156,217,-244
373944379,-3192,940,15816,-282,422,-187
373947935,-2552,1920,15712,-324,367,-330
373951579,-2900,864,15348,43,4,72
373954615,-3840,1664,15616,-4,145,230
373957998,-4168,-1612,16804,11,-30,-10
373961468,-3192,696,15504,-172,127,-191
373965060,-2868,-356,16396,-190,-85,-348
373968718,-2680,1424,15612,-179,107,-257
373972312,-2988,1912,15716,-114,70,64
373975695,-3400,-1188,16556,-67,148,59
373979165,-3768,1080,15956,39,221,188
373982548,-2516,-504,16164,-384,382,-439
373986192,-3268,600,15656,-101,208,-235
373989749,-3020,2028,15844,-254,104,-362
373993417,-3080,948,15548,103,-129,128
373996862,-3096,1912,15400,46,-56,69
374000159,-3660,-1216,16408,-34,-72,-134
374003802,-3824,468,15676,-47,262,30
374007099,-2288,268,16128,-184,7,-324
374010482,-2612,1232,15148,-76,281,-12
374013952,-2552,2104,15552,-68,197,74
374017360,-4172,-1228,16676,-79,281,103
374020892,-3968,1028,15856,-2,273,187
374024275,-2996,-640,16196,-230,17,-453
374027832,-2916,996,15416,-111,121,-171
374031389,-2928,1556,15452,-42,-172,-96
374034945,-2712,1268,15464,103,-126,57
374038416,-3748,712,15452,-56,110,151
374041822,-3276,-1364,16752,-194,269,-215
374045529,-3360,868,15880,3,256,94
374048652,-2548,44,16112,-328,317,-373
374052122,-2780,1180,15240,10,81,19
374055332,-3916,1608,15724,58,45,306
374058628,-4232,-1784,16720,15,74,-24
374062012,-3252,776,15572,-152,26,-173
374065517,-2840,1096,16016,-152,-69,-369
374069227,-2412,1660,15536,-18,-51,-29
374072595,-3156,1744,15612,-45,-45,117
374076065,-3428,-1140,16656,-66,370,-120
374079709,-3796,1444,15812,42,143,198
374083092,-2944,-880,16352,-335,379,-372
374086735,-3344,276,15716,-221,327,-321
374090296,-2868,2328,15748,-282,-6,-368
374093873,-3200,620,15484,109,-72,155
374097232,-3744,1380,15264,-42,-112,-75
374100789,-3812,-1196,16600,85,-91,50
374104172,-2768,632,15512,-295,273,-350
374107729,-2272,216,15844,-121,-6,-301
374111199,-2552,1324,15364,-259,421,-131
374114842,-2424,1984,15904,-128,141,-31
374118424,-2928,1300,14940,55,58,166
374121696,-4164,816,15892,46,128,214
374124992,-2924,-524,16412,-266,136,-483
374128636,-3052,1064,15524,-127,13,-88
374132106,-2836,1388,15640,-174,-94,-352
374135749,-2672,1588,15472,67,-65,53
374139046,-3768,500,15744,-32,99,159
374142365,-3184,-1332,16656,-182,404,-250
374146072,-3432,732,16036,4,205,143
374149282,-2524,1724,16016,-331,382,-377
374152926,-2876,1200,15196,-13,14,31
374156222,-3836,1576,15532,-32,-42,85
374159605,-4092,-1248,16500,14,57,31
374162902,-3340,592,15696,-124,40,-195
374166442,-2888,-536,16072,-146,45,-347
374169929,-2392,1664,15520,23,-172,-35
374173399,-3268,1540,15792,-31,55,101
374176782,-3336,-864,16344,-94,298,-69
374180252,-3936,1184,15980,119,95,243
374183635,-2792,-632,16288,-446,451,-427
374187278,-3256,532,15684,-127,178,-197
374190860,-3012,1780,16120,-102,70,-36
374194305,-3032,1144,15648,44,-201,85
374197689,-3716,1176,15444,81,56,89
374200898,-2956,-1016,16464,23,-54,9
374204195,-2860,188,15816,-235,313,-332
374207752,-2924,1692,15796,-80,-20,13
374211135,-2716,1068,15244,-98,167,9
374214431,-3000,2224,15512,13,180,196
374217839,-3560,-1576,16700,9,175,243
374221198,-3792,-260,16264,-139,365,-223
374224841,-2744,1888,15736,-276,82,-472
374228398,-3072,1136,15280,80,-152,122
374231868,-3236,1692,15220,-75,-4,-173
374235338,-3704,-180,16284,108,-145,95
374238808,-3808,72,16100,9,142,166
374241956,-2560,1076,15824,-256,140,-424
374245575,-2692,1364,15252,-144,287,-113
374249218,-2472,1640,15940,-199,278,-135
374252862,-3772,-276,15876,-23,-36,-4
374256245,-3692,1824,15796,41,186,296
374259628,-3496,-1592,16864,-198,55,-386
374263271,-3568,652,15772,-87,128,-129
374266807,-2920,828,15928,-158,13,-327
374270211,-2360,1776,15584,14,-146,-76
374273682,-3336,1532,15252,-92,115,66
374277065,-3464,-820,16504,-64,234,-44
374280535,-4128,392,16176,-156,403,-37
374284005,-2756,-932,16304,-384,402,-411
374287648,-2836,1196,15472,-94,165,-176
374291230,-2900,1848,15916,-165,99,-80
374294675,-3824,-500,15884,75,-178,59
374298058,-3484,1236,15404,80,31,143
374301355,-3324,-1260,16728,-174,-69,-341
374305085,-2996,452,15564,-215,339,-260
374308642,-2892,1328,15936,-222,101,-350
374312285,-2648,1340,15384,-124,228,-30
374315867,-2376,1832,16008,-112,246,-77
374319399,-4004,-460,16268,1,181,229
374322695,-4032,-244,16360,111,208,268
374326165,-2988,-756,16536,-340,78,-512
374329722,-3128,1124,15472,-43,21,-98
374333105,-2848,1188,15768,-107,-72,-195
374336749,-2532,1644,15560,31,-159,48
374340136,-3612,996,15468,-26,153,170
374343540,-2208,-608,16016,-134,276,-133
374347159,-3652,612,16080,-200,372,-122
374350715,-2656,-300,16080,-372,423,-396
374354359,-2700,1148,15200,-3,17,-14
374357656,-3128,2228,15796,-53,41,69
374360952,-3908,-1216,16512,88,-88,88
374364335,-3856,568,15768,78,41,104
374367611,-3148,-1028,16384,-174,-19,-391
374371275,-2128,1872,15496,1,-44,-79
374374572,-3148,1464,15952,-118,96,-2
374377955,-3324,-560,16328,-29,241,-31
374381425,-4192,496,16304,67,222,202
374384722,-3164,-1036,16432,-344,310,-338
374388452,-2848,1140,15496,-73,323,-137
374392033,-2804,1636,15892,-161,-18,-151
374395652,-3008,1440,15472,82,-145,92
374399035,-3476,1408,15260,0,-4,115
374402245,-3292,-1120,16512,98,-143,64
374405715,-3272,152,15816,-218,361,-203
374409272,-2892,1272,16016,-233,58,-423
374412829,-2464,1520,15416,-126,274,-51
374416410,-2492,1776,15904,-172,255,-75
374419942,-3896,-600,16456,9,183,170
374423238,-3972,376,16128,12,215,242
374426535,-3352,-1492,16624,-212,37,-391
374430179,-2836,1528,15500,-110,134,-165
374433822,-2796,1068,15852,-87,-171,-187
374437466,-2468,1500,15424,32,-80,-40
374440873,-3412,1416,15304,-74,137,183
374444319,-3332,-932,16384,-99,258,-136
374447876,-3960,448,16200,-140,367,-54
374451346,-2712,-548,16360,-376,353,-406
374454989,-2792,1220,15372,-23,56,-116
374458459,-2832,1924,16064,-142,44,-47
374461929,-3824,-824,16200,98,-68,145
374465316,-3688,1028,15408,78,68,116
374468674,-3236,-944,16508,-178,-66,-329
374472252,-2952,548,15528,-202,301,-242
374475809,-3028,1168,15836,-121,-22,-62
374479366,-2652,1524,15308,-98,176,-5
374482749,-3128,1688,15584,24,137,208
374486132,-3316,-1280,16620,-55,234,118
374489700,-3840,216,15956,-86,348,-119
374493188,-3080,-924,16596,-250,65,-425
374496716,-2904,1468,15360,45,-40,44
374500012,-3212,1532,15300,-51,-107,-150
374503656,-3660,-336,16096,130,-101,126
374507212,-3540,960,15492,-92,235,136
374510596,-2488,-496,16100,-177,55,-383
374514153,-3452,832,15916,-241,422,-104
374517734,-2680,1352,16068,-158,200,-173
374521353,-2748,1268,15176,-14,45,-17
374524736,-3692,1956,15460,48,66,319
374528033,-4148,-1452,16688,76,-17,53
374531416,-3528,700,15760,-142,97,-143
374534886,-2832,804,15816,-150,-63,-354
374538443,-2356,1604,15676,-72,23,-74
374541850,-3348,1600,15288,-97,-10,61
374545209,-3316,-864,16360,-33,348,-45
374548679,-4084,556,16156,-173,271,0
374551976,-2968,-968,16380,-302,412,-308
374555619,-2888,1152,15552,-64,27,-194
374559089,-2680,1872,15980,-93,1,-58
374562386,-3804,-612,15980,65,2,128
374565655,-3856,580,16040,66,-106,82
374568927,-3372,-1244,16412,-150,50,-274
374572535,-2036,1656,15480,-116,-8,-257
374576092,-2864,1288,15844,-47,55,-12
374579475,-3432,-60,15836,-10,216,18
374582772,-4280,540,16412,77,77,198
374585982,-3504,-1592,16904,-352,434,-292
374589712,-2988,832,15556,-50,199,-43
374593120,-2488,964,16036,-185,127,-278
374596652,-3520,444,15624,-7,-160,-6
374599948,-3492,1488,15228,97,-44,73
374603245,-3700,-1228,16572,-84,-105,-197
374606975,-3604,132,16040,-136,277,-79
374610445,-2480,680,15996,-155,20,-252
374613915,-2464,1484,15524,-229,246,-116
374617583,-2784,2196,15376,-168,345,-176
374621202,-3428,68,15548,6,31,142
374624238,-4196,640,16064,-21,351,87
374627535,-2668,132,16192,-145,56,-310
374631005,-2932,1360,15556,-71,11,-138
374634475,-3216,1852,15484,-155,-23,-272
374638118,-3184,416,16100,134,-190,166
374641613,-3340,1828,15508,-80,181,133
374645058,-2752,-1004,16484,-160,104,-265
374648789,-4400,112,16504,-96,336,9
374651998,-2580,884,16148,-267,285,-316
374655555,-2804,908,15444,-75,77,-161
374658938,-3320,2556,15632,-26,75,228
374662322,-4116,-1876,16896,87,-114,185
374665925,-4164,684,15920,-11,147,-11
374669297,-2788,-56,15992,-134,-66,-245
374672818,-2408,1208,15668,-133,153,-238
374676462,-3148,1840,15488,-139,47,-161
374680019,-3156,260,15540,-7,217,73
374683228,-4088,816,16212,12,216,169
374686525,-3788,-1452,16736,-212,289,-147
374690259,-3004,724,15636,-40,340,5
374693489,-2540,732,16048,-236,-26,-335
374697021,-3288,744,15496,148,-64,201
374700405,-3148,1692,15352,18,-123,68
374703788,-3808,-1220,16588,-46,-15,-118
374707431,-3844,300,15816,-141,348,-38
374710902,-2396,192,16100,-169,-7,-313
374714372,-2616,1332,15544,-262,388,-199
374718040,-2596,2324,15412,6,84,179
374721225,-4048,-1544,16932,74,72,153
374724608,-3976,1128,16088,-19,219,102
374728078,-2756,-448,16268,-107,35,-207
374731635,-2896,1224,15352,-158,54,-179
374735192,-2952,1800,15632,-130,-130,-280
374738922,-3096,880,15824,86,-84,63
374742156,-3688,616,15732,-88,66,159
374745428,-3192,-1240,16708,-141,237,-256
374749158,-3008,892,15816,-109,360,47
374752541,-2444,576,15980,-290,252,-329
374756098,-3188,792,15500,-46,198,-187
374759568,-3380,2376,15728,-39,-36,171
374763038,-4060,-1748,16664,153,-82,209
374766642,-4168,464,15832,-8,65,-5
374769753,-2836,-108,16160,-140,-47,-331
374773362,-2216,1168,15444,-223,205,-291
374777005,-3156,1988,15768,-134,-23,-192
374780649,-2844,448,15368,26,251,126
374783945,-4020,1176,15924,-39,105,87
374787328,-4048,-1440,17008,-145,322,-30
374790996,-3032,532,15924,-91,332,-46
374794355,-2520,788,15756,-213,-4,-249
374797825,-3220,504,15636,-44,18,-51
374801122,-3052,1972,15556,-7,-147,-22
374804592,-3600,-1332,16420,-3,19,-41
374807975,-2820,788,15708,-108,175,-42
374811445,-2492,288,16120,-143,109,-281
374815002,-2832,1120,15668,-335,319,-173
374818670,-2592,2296,15480,-5,145,80
374821941,-4208,-1400,16772,11,64,173
374825325,-3744,1484,15460,21,139,181
374828708,-2992,-1060,16284,16,107,-91
374832178,-2912,1040,15668,-185,12,-248
374835735,-2976,1640,15532,-96,-92,-250
374839291,-2924,688,15740,42,-165,7
374842526,-3760,1104,15632,-30,173,128
374845971,-3216,-1284,16632,-118,287,-138
374849702,-3256,784,16132,-17,200,110
374853085,-2476,304,16012,-332,448,-382
374856642,-2924,752,15392,-90,105,-130
374860111,-3000,2236,15924,-124,69,45
374863495,-4176,-1332,16324,87,-44,141
374867012,-4180,68,15968,8,13,-23
374870036,-2768,44,16088,-183,-22,-330
374873471,-2700,1004,15560,51,-89,-56
374876854,-3072,1868,15872,-128,98,-32
374880324,-3428,-1056,16292,-17,228,-7
374883794,-3936,1008,15956,60,179,196
374887178,-2648,-460,16124,-338,342,-354
374890846,-3304,240,15940,-116,207,-190
374894378,-2868,1896,16116,-136,14,-53
374897848,-3116,1236,15556,26,-188,122
374901318,-3620,1292,15424,69,20,98
374904528,-3140,-1296,16484,32,-107,6
374907911,-3204,356,15740,-208,350,-214
374911468,-2960,1232,16248,-199,23,-370
374915024,-2584,1528,15076,-116,271,-26
374918606,-3072,1952,15444,-104,203,0
374921964,-4052,-980,16588,-32,192,147
374925434,-3788,584,15860,-13,261,200
374928817,-3348,-1364,16464,-207,20,-385
374932461,-3044,1436,15460,-151,112,-205
374936104,-2664,1508,15724,-78,-155,-112
374939748,-2600,1260,15552,75,-149,37
374943156,-3616,1300,15588,-67,172,116
374946601,-3400,-1236,16660,-77,223,-96
374950158,-3900,488,16264,-254,437,-98
374953628,-2700,-292,16164,-318,348,-375
374957272,-2852,980,15400,-20,101,-76
374960655,-2948,1800,16068,-158,26,-97
374964125,-3760,-520,15988,196,-90,206
374967643,-3952,376,15700,50,78,82
374970753,-2988,-336,16480,-167,-58,-347
374974361,-2548,1132,15604,-179,284,-184
374978005,-2972,1508,16024,-134,4,-84
374981388,-3632,-516,16096,-44,172,63
374984771,-3280,1544,15488,16,83,117
374988068,-3084,-944,16548,-276,380,-247
374991736,-3688,136,15776,-159,302,-152
374995268,-2676,1780,15792,-227,32,-469
374998825,-3020,1368,15544,76,-70,127
375002208,-3360,1600,15268,-73,-102,-125
375005852,-3764,-588,16112,121,-66,107
375009321,-3288,324,15884,-81,200,130
375012705,-2320,-368,15992,-195,107,-386
375016373,-3400,696,15884,-265,433,-184
375019905,-2432,1880,15816,-106,134,-47
375023462,-2936,1052,15284,42,78,46
375026672,-3748,1908,15580,36,71,264
375029968,-3560,-1568,16648,-160,163,-381
375033698,-3684,636,15924,-138,67,-121
375037168,-2784,1016,16016,-208,-47,-359
375040836,-2448,1656,15356,3,-18,-39
375044108,-3364,1400,15580,-71,-13,41
375047492,-3468,-964,16388,-41,375,-23
375050961,-3988,412,16396,-206,293,-86
375054432,-2764,-760,16352,-359,397,-341
375058075,-2828,1188,15344,-106,307,-177
375061719,-2720,1964,15904,-115,-56,-31
375065279,-3156,1268,15384,83,-67,134
375068760,-3652,1116,15432,85,-114,86
375072081,-3228,-1264,16496,39,-91,29
375075425,-3124,372,15836,-264,276,-290
375078982,-2868,1400,15852,-213,41,-416
375082539,-2468,1504,15288,-99,252,-10
375086009,-3388,1812,15472,-101,149,-3
375089479,-3948,-964,16512,-13,278,148
375092973,-3932,216,16172,32,192,219
375096245,-3080,-1164,16440,-236,104,-429
375099975,-2928,1416,15584,-144,104,-140
375103619,-2844,1248,15816,-55,-137,-142
375107262,-2564,1540,15488,71,-40,13
375110559,-3660,1008,15448,-4,56,156
375113855,-2524,-600,16284,-102,316,-107
375117523,-3728,560,16148,-278,301,-132
375121055,-2708,-344,16152,-341,347,-395
375124699,-2772,1196,15164,-30,28,-45
375128082,-2992,2292,15780,-49,-45,79
375131466,-4080,-1304,16344,32,65,76
375134762,-3560,700,15972,41,-23,69
375137972,-3172,-992,16340,-148,4,-386
375141466,-2356,1700,15340,-85,-83,-104
375144999,-3036,1536,15696,50,-164,85
375148382,-3556,-904,16400,-97,372,-16
375151852,-4196,604,16572,111,-74,232
375155235,-3188,-1140,16412,-297,446,-287
375158965,-3540,280,15712,-124,139,-163
375162522,-2512,1740,16000,-64,-33,-31
375166039,-2996,1312,15320,18,-104,70
375169375,-3392,1496,15156,114,-135,95
375172880,-3548,-632,16312,56,-1,103
375176142,-3304,276,15768,-199,196,-198
375179699,-2912,1016,16040,-158,139,-376
375183342,-2556,1508,15200,-144,155,-61
375186899,-2424,1772,15948,-39,133,-28
375190372,-3964,-556,16068,-50,228,198
375193863,-3940,1536,15696,72,60,263
375197135,-3464,-1436,16572,-216,176,-377
375200866,-3336,772,15820,-89,-21,-127
375204336,-2828,940,15840,-111,27,-240
375207806,-2224,1784,15336,-38,-69,-38
375211276,-3684,1264,15528,-95,313,260
375214746,-3632,-996,16612,-101,359,-92
375218327,-3876,552,16200,-189,308,-14
375221772,-2760,-740,16240,-464,647,-384
375225416,-2824,1312,15556,-180,234,-211
375229059,-2848,1796,16116,-127,178,-31
375232616,-2832,1224,15492,2,17,92
375235739,-3536,1184,15544,132,-19,205
375239209,-3656,-1188,16448,-251,92,-310
375242877,-2788,612,15404,-193,81,-411
375246323,-2728,1480,15620,-248,43,-506
375249879,-2556,1324,15464,55,-74,-148
375253349,-3400,1960,15748,-41,97,-113
375256819,-4020,-1116,16728,-22,177,-60
375260376,-3884,96,16176,67,97,227
375263499,-3184,-1160,16608,-308,255,-481
375267276,-2736,1360,15304,-165,55,-161
375270786,-2752,1404,15816,-121,38,-152
375274378,-3704,-376,16300,99,-144,74
375277726,-3412,1164,15272,-104,219,195
375281283,-2628,-768,16004,-16,293,-105
375284840,-3596,844,15992,-246,330,-74
375288310,-2472,1548,15692,-363,409,-377
375291978,-2756,1212,15368,-43,40,-22
375295336,-3368,2200,15564,-126,-14,32
375298806,-4096,-1092,16136,80,-3,33
375302103,-3748,652,15856,24,-9,84
375305226,-3000,416,16208,-149,50,-367
375308696,-2200,1704,15464,-79,-92,-202
375312252,-3332,1696,15424,-28,-8,16
375315574,-3456,-576,16068,-107,304,-45
375319106,-4308,372,16644,115,42,273
375322402,-3204,-1208,16364,-409,487,-338
375326133,-3004,1116,15472,-96,183,-154
375329689,-2632,1480,16056,-173,144,-117
375333333,-2888,1316,15596,17,-175,66
375336716,-3424,1520,15356,63,-45,81
375340013,-3344,-1248,16372,62,-25,106
375343507,-3620,12,15968,-188,277,-216
375346953,-2612,1080,15968,-234,206,-429
375350596,-2396,1636,15152,-147,195,-61
375354153,-2804,2120,15484,-104,232,-104
375357796,-3744,-204,15948,-22,110,182
375361266,-3676,1900,15468,102,82,296
375364650,-3632,-1572,16740,-279,126,-422
375368427,-3396,1012,15700,-92,47,-88
375371763,-2816,500,16288,-105,-7,-278
375375268,-2240,1780,15468,-50,-55,-140
375378790,-3548,1312,15572,70,106,238
375382173,-3636,-1184,16580,-136,356,-100
375385903,-3876,748,16132,69,80,212
375389113,-3112,-1060,16564,-378,488,-348
375392868,-2956,1128,15588,-159,209,-202
375396487,-2836,1768,16012,-84,82,-35
375399870,-3904,-548,15960,48,-116,102
375403340,-3592,1092,15276,118,-46,79
375406723,-3112,-1032,16316,-182,-7,-336
375410367,-3164,156,15788,-244,240,-297
375413924,-2680,1600,16028,-186,125,-386
375417592,-2760,1296,15440,-101,167,15
375421037,-2484,1812,15732,-99,228,-37
375424507,-4148,-716,16392,-56,205,178
375427977,-4048,1160,15676,41,146,231
375431360,-3068,-972,16364,-285,157,-473
375435004,-3000,960,15672,-116,-18,-143
375438561,-2856,1180,15900,-56,-40,-174
375442142,-2588,1672,15452,38,-169,29
375445501,-3672,1028,15476,27,119,189
375448884,-3424,-1140,16560,-143,359,-159
375452614,-3556,712,16040,11,131,163
375455911,-2644,-408,16300,-391,472,-390
375459554,-2860,1132,15272,-159,175,-219
375463198,-2832,2160,16068,-81,77,61
375466541,-4168,-1152,16260,102,-71,181
375470051,-3924,884,15716,53,-27,69
375473261,-3048,-664,16436,-201,18,-340
375476852,-2892,500,15600,-216,175,-297
375480374,-2676,1744,15860,-82,83,14
375483671,-3680,-764,16192,-69,134,46
375487054,-3432,1544,15572,76,147,229
375490441,-3240,-1196,16476,-106,278,114
375494105,-3620,304,16000,-87,245,-163
375497551,-2720,1720,15892,-326,168,-441
375501194,-2948,1332,15364,64,-159,94
375504577,-3632,1356,15468,-1,-79,-47
375507961,-3856,-776,16416,43,-75,24
375511257,-3588,212,15740,-167,329,-202
375514814,-2584,-504,16252,-284,106,-425
375518482,-2668,1568,15304,-248,295,-142
375522101,-2696,1680,15864,-133,275,-100
375525744,-3016,1120,15176,41,-54,36
375529041,-3840,1476,15668,42,218,253
375532424,-3508,-1332,16592,-12,2,-35
375535807,-3352,628,15724,-124,72,-160
375539277,-2748,1360,15924,-221,27,-401
375542859,-2628,1460,15464,61,-170,21
375546217,-3384,1236,15404,-37,135,132
375549687,-3404,-1136,16532,-94,240,-108
375553331,-3768,428,16236,83,177,173
375556627,-2772,-700,16100,-422,385,-385
375560271,-2976,1308,15412,-94,159,-211
375563828,-2940,2012,15632,-103,34,30
375567270,-3888,-932,16192,79,-184,149
375570681,-3884,1116,15424,45,68,82
375573891,-3048,-808,16364,-157,-49,-331
375577569,-2852,492,15552,-236,322,-301
375581091,-2756,1708,15708,-36,-52,21
375584474,-2872,1140,15476,-85,199,18
375587857,-3344,1804,15604,51,113,197
375591265,-3400,-1328,16568,-68,212,129
375594797,-3576,508,15988,-133,278,-190
375598354,-2964,-696,16260,-265,19,-409
375601911,-3128,1408,15284,47,-21,60
375605207,-3604,1352,15128,-20,-199,-78
375608764,-3676,-664,16484,67,-6,61
375611974,-3440,152,15708,-213,244,-216
375615555,-2344,-480,16312,-204,103,-402
375619174,-2712,1572,15212,-294,402,-124
375622818,-2468,1872,15848,-103,178,-53
375626374,-2964,988,15352,46,66,69
375629497,-4008,1672,15728,-18,107,241
375632967,-3396,-1488,16544,57,34,-20
375636350,-3444,780,15636,-170,42,-197
375639820,-2840,1200,15888,-50,-92,-168
375643402,-2532,1548,15404,-7,-57,-32
375646761,-3560,1336,15552,-25,26,181
375650144,-3532,-1092,16456,-92,420,-57
375653700,-3868,456,16276,-154,281,-48
375657171,-2860,-920,16104,-351,463,-369
375660814,-2796,1380,15408,-49,-33,-83
375664284,-2908,2296,15852,-2,-14,106
375667714,-3904,-1292,16284,19,-10,20
375671051,-3804,1116,15580,46,-37,44
375674347,-3012,-1164,16380,-173,30,-320
375678026,-2888,396,15740,-266,197,-325
375681547,-2776,1876,15772,-37,66,12
375684844,-3468,-752,16172,-80,135,60
375688227,-3432,1644,15336,78,189,256
375691635,-3256,-1224,16416,-395,373,-371
375695341,-3604,512,16056,-95,195,-168
375698811,-2636,1620,15828,-282,164,-419
375702454,-2932,1392,15408,79,-201,54
375705837,-3528,1348,15392,-7,-112,-70
375709307,-3756,-548,16376,31,-93,49
375712604,-3372,56,15808,-176,308,-235
375716098,-2288,-224,16088,-294,160,-410
375719717,-2712,1436,15436,-230,293,-128
375723361,-2444,1644,15744,-147,310,-57
375726918,-2956,1164,15252,20,-64,85
375730214,-3996,1624,15792,43,226,246
375733597,-3460,-1388,16656,13,17,-42
375736981,-3192,616,15580,-149,71,-227
375740454,-2756,1480,15772,-44,-151,-120
375744119,-2696,1336,15588,46,-199,35
375747477,-3408,1400,15504,-18,150,156
375750947,-3588,-1428,16728,-115,229,-106
375754678,-3564,768,15996,7,229,157
375757887,-2748,-488,16020,-393,404,-377
375761531,-2880,1140,15440,-90,128,-247
375765091,-3112,2136,15816,-88,76,68
375768431,-3964,-1096,16256,88,-68,60
375771767,-3944,836,15544,105,62,116
375775064,-2992,-716,16376,-192,-71,-394
375778742,-2700,700,15412,-221,223,-268
375782264,-2776,1728,15720,-102,45,-27
375785734,-2916,1076,15316,-25,105,48
375789117,-3572,1460,15760,30,181,220
375792525,-2960,-932,16120,-127,240,12
375795971,-3288,400,16032,-101,250,-189
375799527,-2704,1944,15772,-312,97,-414
375803084,-3028,1260,15524,104,-129,112
375806641,-2968,1800,15524,-9,-100,-9
375810024,-3768,-928,16388,13,-51,-49
375813407,-3184,524,15672,-49,257,68
375816728,-2276,-300,16204,-209,36,-381
375820261,-2668,1540,15260,-258,376,-169
375823904,-2536,1880,15544,-125,168,-31
375827461,-4112,-964,16548,64,-27,112
375830844,-3824,1368,15884,-24,224,187
375834314,-3248,-1208,16524,-21,-37,-74
375837871,-3212,884,15508,-163,131,-192
375841452,-2840,36,16292,-145,-138,-345
375844984,-2772,1144,15788,88,-62,103
375848368,-3648,1104,15660,-89,50,102
375851751,-3468,-1268,16484,-107,272,-138
375855481,-4260,584,16116,-17,317,154
375858864,-2592,104,15968,-358,336,-389
375862421,-3104,700,15676,-56,188,-235
375865938,-3100,2332,15764,-36,-42,112
375869361,-3340,624,15632,174,-157,218
375872831,-3860,724,15680,-16,29,28
375876041,-3040,-604,16264,-142,-12,-369
375879719,-2516,880,15576,-249,254,-282
375883241,-3032,1648,15764,-160,-8,-284
375886798,-2992,948,15504,-37,249,96
375890098,-3848,1028,16092,-44,124,167
375893589,-4056,-1508,16912,-144,322,-29
375897208,-3304,504,15828,-35,282,99
375900504,-2736,-64,16228,-264,69,-465
375903974,-3088,1124,15416,-65,21,-148
375907444,-3052,1700,15420,28,-189,7
375910741,-3784,-1000,16352,-1,34,-79
375914124,-2772,596,15572,-123,245,46
375917532,-2440,88,15936,-142,65,-338
375920891,-2724,1392,15332,-116,162,43
375924361,-2572,2128,15664,-49,145,54
375927744,-4140,-1384,16852,-112,280,35
375931300,-4072,1068,15984,-9,148,187
375934684,-3012,-672,16476,-271,168,-466
375938327,-2900,1056,15408,-168,-14,-212
375941995,-2780,1732,15764,-124,-101,-344
375945701,-3148,936,15604,75,-102,113
375949084,-2976,1968,15464,-57,-11,97
375952468,-3228,-1400,16612,-158,359,-209
375956198,-4128,768,16048,-74,220,114
375959581,-2620,-264,16080,-306,428,-350
375963225,-2808,912,15724,-196,209,-372
375966829,-3244,2668,15504,-169,-72,-208
375970425,-3516,-260,15672,98,-27,149
375973808,-4072,1140,15520,-1,-133,29
375977191,-3504,-1360,16556,-48,26,-149
375980783,-2504,1080,15384,-180,278,-142
375984392,-2600,588,16152,-140,41,-263
375987862,-3096,764,15372,-212,343,-139
375991443,-2668,2060,15412,-2,73,130
375994715,-3964,-1316,17032,58,174,227
375998185,-4236,260,16272,-21,205,62
376001481,-2484,464,16080,-264,128,-406
376005038,-2828,1288,15460,-87,-47,-74
376008508,-2996,1796,15580,61,-132,-6
376011891,-3228,616,15940,92,-55,147
376015191,-3880,312,15828,-82,159,3
376018422,-2260,184,16064,-196,125,-344
376021954,-2916,1356,15764,-229,231,-136
376025598,-2696,1940,15704,-261,322,-269
376029241,-2932,748,15440,12,41,110
376032451,-4132,1100,16208,36,220,212
376035834,-4116,-1832,16864,-113,140,-181
376039565,-2792,984,15488,-32,4,-66
376042799,-2888,168,16416,-122,16,-334
376046244,-3020,972,15612,86,-200,107
376049628,-3888,632,15720,-5,69,155
376052837,-3140,-1312,16728,-180,230,-234
376056568,-3104,904,15848,-32,198,103
376059951,-2516,264,15972,-343,408,-384
376063507,-2856,1120,15240,-95,52,-232
376067079,-3184,2360,15532,-46,126,181
376070448,-4140,-1600,16632,123,-170,213
376074091,-4012,492,15924,40,121,40
376077301,-2864,-296,16244,-179,-89,-351
376080983,-2292,996,15464,-225,166,-304
376084501,-2940,2148,15624,-154,83,-222
376088058,-3172,324,15544,-15,170,81
376091384,-3760,1480,15820,-69,207,50
376094738,-4196,-1428,16912,-130,244,51
376098294,-3096,296,15968,-37,311,-31
376101678,-2732,844,15928,-240,13,-349
376105148,-3212,380,15656,152,-117,189
376108618,-3092,1960,15552,-20,-70,7
376111914,-3760,-1320,16592,1,-37,-52
376115301,-2684,720,15420,-90,349,-78
376118705,-2244,420,15976,-140,-8,-282
376122151,-3084,1000,15456,-94,286,31
376125534,-2472,2164,15576,-102,147,20
376129004,-4244,-1316,16720,-64,289,87
376132474,-4168,792,16264,-33,242,155
376135857,-2712,-440,16304,-257,90,-435
376139414,-2912,1168,15408,-129,94,-119
376142995,-2932,1448,15720,-34,-172,-114
376146614,-2880,1096,15380,119,-113,129
376150171,-3952,532,15580,-62,67,150
376153467,-3180,-1252,16632,-114,252,-233
376157197,-3156,876,16044,-82,355,92
376160494,-2504,304,16144,-324,258,-366
376164051,-2860,1136,15236,-82,215,-176
376167655,-3272,2288,15572,-15,-19,137
376171078,-4172,-1528,16604,158,-127,197
376174721,-4012,572,15960,-63,59,0
376177844,-2916,-252,16144,-146,-43,-381
376181523,-2180,1180,15360,-198,203,-285
376185131,-2964,2112,15544,-169,-18,-212
376188775,-3160,524,15572,21,230,130
376192096,-4056,940,15980,-40,171,140
376195454,-4128,-1624,17004,-185,343,-96
376199098,-3024,704,15948,-111,333,9
376202394,-2748,176,15972,-221,0,-357
376205778,-3112,1012,15496,91,-100,120
376209248,-3008,1840,15308,39,-171,46
376212631,-3920,-1168,16440,-16,52,-75
376216125,-3932,228,15876,-153,215,-19
376219571,-2368,316,15944,-141,97,-301
376223041,-2828,1140,15488,-290,319,-162
376226684,-2548,2280,15384,-39,164,81
376230068,-3256,480,15460,72,58,176
376233277,-4064,1080,15892,-3,142,121
376236661,-2900,-576,16032,-253,159,-420
376240308,-2924,1068,15584,-151,2,-250
376243798,-3000,1668,15644,-128,-97,-326
376247418,-3084,932,15712,55,-79,109
376250714,-3848,680,15756,-29,-16,168
376254097,-3460,-1436,16880,-168,324,-247
376257827,-3228,1152,15764,-78,239,78
376261211,-2752,-364,16312,-317,370,-314
376264854,-2764,1580,15292,-235,254,-327
376268545,-3248,2392,15500,89,-44,268
376271881,-4056,-1872,16904,107,-47,150
376275438,-4044,984,15664,6,-6,63
376278474,-2936,-716,16336,-179,44,-387
376282066,-2356,1172,15352,-232,144,-328
376285674,-2824,1764,15548,-110,16,-216
376289231,-3088,672,15388,-54,251,96
376292552,-3868,784,16036,46,192,164
376295824,-3932,-1428,16980,-204,423,-93
376299468,-3264,416,16000,-141,171,-201
376303024,-2640,28,15944,-220,134,-395
376306494,-3072,1260,15424,112,-234,145
376310051,-2952,1852,15384,92,-103,91
376313434,-3704,-1156,16480,-69,-54,-114
376317102,-4092,364,15952,-81,199,10
376320374,-2404,176,16120,-191,50,-326
376323844,-2724,1180,15632,-281,292,-196
376327488,-2524,2312,15496,-251,358,-278
376331131,-3268,620,15328,33,-14,155
376334428,-4132,996,16116,41,67,238
376337638,-2988,-456,16308,-131,95,-180
376341219,-2976,1096,15796,-88,-7,-152
376344664,-2860,132,16164,-203,46,-366
376348134,-2936,1172,15536,127,-205,108
376351691,-3088,1976,15548,-10,86,166
376355074,-3192,-1272,16700,-194,233,-265
376358805,-4208,616,16100,-6,267,109
376362101,-2564,72,16052,-377,335,-411
376365618,-3036,976,15708,-108,134,-201
376369128,-3204,2252,15732,-42,65,115
376372511,-4028,-1548,16520,123,-183,191
376376155,-4052,556,15884,29,130,16
376379364,-2836,-492,16336,-129,-42,-260
376383043,-2196,1208,15324,-200,186,-247
376386651,-2376,704,16052,-138,63,-243
376390125,-3020,752,15556,-62,186,54
376393442,-3788,1440,15704,-47,208,105
376396888,-4400,-1620,16900,-112,251,57
376400445,-4088,8,16328,-84,307,-21
376403654,-2604,688,15796,-237,-23,-348
376407211,-3252,588,15480,-39,-68,-90
376410594,-2964,1996,15496,-6,-60,-43
376413978,-3832,-1312,16648,33,-89,-15
376417472,-4100,260,15888,-119,291,-13
376420918,-2324,196,16080,-176,2,-317
376424301,-2856,1208,15336,-231,362,-171
376427944,-2352,2284,15516,-67,130,18
376431328,-4252,-1480,16744,96,-67,158
376434798,-3828,1132,15908,-38,242,132
376438268,-3068,-896,16280,-17,-4,-128
376441762,-3080,936,15656,-167,116,-219
376445294,-2824,164,16188,-183,-80,-382
376448851,-2924,1072,15564,121,-106,101
376452408,-3132,1960,15488,-46,21,159
376455791,-3372,-1384,16840,-147,270,-217
376459521,-4136,728,16232,0,294,135
376462731,-2620,-20,16292,-370,342,-400
376466335,-2988,724,15852,-102,231,-232
376469845,-3128,2508,15568,-40,3,147
376473141,-4112,-1676,16620,175,-188,234
376476785,-3984,808,15824,0,67,36
376479821,-2912,-544,16208,-159,-31,-379
376483499,-2376,1112,15316,-171,235,-280
376487108,-2964,1720,15752,-184,-3,-293
376490689,-2900,964,15292,-28,206,75
376493961,-3676,1432,15916,-110,158,44
376497431,-4012,-1104,16664,-87,302,67
376500901,-3368,140,16140,9,304,86
376504024,-2792,2320,15764,-307,24,-422
376507581,-3204,756,15464,88,-84,139
376510877,-3584,1488,15260,-28,-164,-39
376514434,-3784,-1052,16508,53,7,31
376517668,-3076,456,15656,-240,217,-318
376521200,-2252,-188,16036,-181,65,-376
376524757,-2848,1484,15344,-167,175,-18
376528314,-2632,2000,15632,-104,148,-12
376531871,-4084,-980,16556,75,72,109
376535167,-4036,1232,15892,-7,163,228
376538551,-3020,-1020,16548,-232,161,-425
376542305,-3184,992,15600,-144,23,-162
376545751,-2872,1368,15808,-149,-77,-351
376549394,-2672,1224,15644,52,-55,38
376552691,-3700,1092,15424,-79,-14,75
376556074,-3496,-1292,16544,-71,323,-104
376559718,-3452,596,16156,-31,206,180
376563101,-2644,-320,15916,-345,402,-413
376566804,-2812,1080,15132,-125,185,-199
376570388,-2992,2148,15828,-97,10,71
376573684,-3952,-1176,16200,168,-70,150
376577241,-3884,636,15768,61,-49,82
376580451,-2948,-648,16296,-177,100,-402
376584129,-2660,716,15460,-236,159,-298
376587651,-2852,1724,15756,-166,16,-288
376591232,-2964,988,15392,-47,187,56
376594504,-3696,1380,15780,68,134,217
376597888,-4192,-1400,16816,-131,360,49
376601444,-3464,488,15768,-131,174,-185
376605001,-2860,-384,16032,-208,143,-389
376608645,-2912,1320,15392,-167,-1,-179
376612201,-3020,1944,15544,29,-126,9
376615522,-3740,-972,16516,100,-104,145
376619054,-3976,356,15796,-14,173,78
376622351,-2360,-44,16132,-210,154,-394
376625908,-3040,948,15664,-266,268,-142
376629465,-2496,2036,15568,-308,327,-353
376633108,-2968,980,15316,30,-6,103
376636318,-4124,1084,15820,39,189,209
376639701,-4064,-1620,16644,-51,110,-124
376643369,-3188,952,15528,-2,6,-24
376646468,-2880,1296,16000,-129,-6,-341
376650024,-2668,1580,15348,-8,-146,5
376653321,-3848,900,15596,28,-36,177
376656617,-3248,-1212,16664,-211,377,-219
376660348,-3500,672,15864,19,136,151
376663644,-2536,-56,16092,-411,465,-410
376667248,-2812,1064,15228,13,-48,38
376670497,-3748,1704,15656,-24,95,120
376673881,-4076,-1432,16560,50,-67,25
376677264,-3480,744,15788,71,32,56
376680387,-2780,964,15964,-184,-32,-373
376683947,-2400,1740,15312,50,-80,8
376687188,-3372,1352,15480,-68,59,179
376690561,-3564,-932,16420,-85,295,-70
376694007,-3880,420,16076,-181,352,-37
376697477,-2736,-656,16364,-382,367,-400
376701120,-2748,1180,15432,-31,99,-70
376704503,-2812,2108,15828,-93,-50,-31
376707973,-3916,-872,16088,134,-5,116
376711357,-3780,640,15880,39,-15,106
376714653,-3120,-1056,16496,-144,-58,-357
376718408,-2876,652,15560,-286,349,-323
376721940,-2864,1492,15712,-66,2,1
376725063,-3424,-372,15948,-71,371,6
376728360,-3312,1688,15580,70,84,224
376731656,-3224,-1080,16652,-343,494,-330
376735386,-3692,280,15948,-117,220,-159
376738943,-2580,1604,15952,-121,57,-143
376742524,-2944,1456,15400,42,-113,94
376745883,-3492,1492,15200,79,-99,78
376749180,-3340,-1292,16492,71,18,39
376752476,-3456,168,15768,-192,239,-190
376756033,-2772,1008,15928,-223,130,-420
376759676,-2596,1656,15284,-144,182,-66
376763233,-2508,1448,16012,-165,212,-125
376766924,-3920,-52,16160,32,228,258
376770173,-4108,1288,15552,73,100,307
376773556,-3424,-1076,16604,-266,169,-439
376777287,-3268,816,15556,-147,53,-111
376780757,-2744,1072,15952,-73,-87,-228
376784313,-2384,1808,15336,26,-97,9
376787558,-3536,1060,15656,-20,50,178
376790931,-2340,-624,16176,-92,404,-138
376794463,-3764,480,16180,-237,284,-91
376797933,-2588,1500,15992,-371,411,-399
376801577,-2708,1252,15368,-6,9,-25
376804786,-3820,2032,15480,-73,-49,71
376808170,-4000,-1184,16380,22,38,50
376811466,-3692,664,15764,-101,42,-65
376814849,-2924,524,16088,-135,47,-334
376818344,-2336,1672,15508,-59,-115,-112
376821963,-3356,1532,15392,-27,65,49
376825259,-3580,-660,16376,-63,252,-35
376828729,-4052,420,16268,98,133,248
376832026,-3076,-1044,16496,-437,476,-401
376835756,-2740,1124,15392,-114,193,-191
376839400,-2636,1812,15828,-140,88,-80
376842894,-3944,-504,16000,67,-214,102
376846339,-3532,1444,15328,96,-13,122
376849723,-3172,-1228,16420,16,-49,34
376853106,-3224,140,15664,-205,306,-284
376856663,-2652,1380,16128,-221,123,-428
376860306,-2660,1336,15192,-111,168,5
376863690,-3116,1876,15308,-77,233,-19
376867207,-3932,-724,16360,-39,165,137
376870629,-3996,160,16200,61,187,282
376873926,-3260,-1172,16628,-289,65,-474
376877570,-2756,1424,15412,-175,60,-192
376881126,-2776,1500,15808,-93,-74,-130
376884683,-3704,-344,16316,53,-232,86
376888101,-3636,1060,15512,-18,213,163
376891561,-2496,-612,16244,-121,277,-148
376895180,-3628,752,16168,-206,383,-87
376898650,-2660,1412,15828,-422,459,-424
376902293,-2848,1188,15304,25,-41,-15
376905677,-2860,2228,15872,-88,98,90
376908973,-4180,-1264,16336,98,-52,40
376912356,-3472,696,15824,-139,148,-113
376915938,-3100,-916,16316,-173,-42,-347
376919557,-2532,1648,15344,-199,183,-288
376923200,-2720,1628,15736,-98,68,35
376926496,-3512,-744,16108,-65,131,59
376929880,-3548,1300,15792,74,217,227
376933263,-2920,-800,16292,-353,356,-372
376936907,-3520,528,15868,-98,276,-170
376940380,-2788,1856,15980,-310,82,-422
376943958,-3188,1320,15304,123,-113,127
376947490,-3636,1000,15316,9,-107,-48
376950873,-3672,-676,16372,13,-104,-13
376954343,-3140,212,15632,-13,252,102
376957727,-2276,8,16072,-248,62,-379
376961023,-2780,1276,15444,-41,270,27
376964406,-3344,1772,15432,-156,214,19
376967924,-4072,-1104,16556,-36,234,106
376971433,-3724,256,16284,17,267,220
376974729,-2976,-856,16520,-244,78,-461
376978286,-2864,1396,15328,-98,91,-164
376981756,-2744,1452,15760,-42,-180,-126
376985400,-2824,1448,15656,98,-117,120
376988905,-3748,720,15660,-55,148,108
376992278,-2308,-316,15972,-161,266,-228
376995897,-3192,624,15936,-290,385,-146
376999453,-2440,248,16048,-376,306,-391
377003010,-2780,996,15272,49,86,81
377006133,-3924,1752,15548,-59,-58,151
377009603,-4168,-1548,16624,59,70,-31
377012986,-3272,672,15716,-184,52,-205
377016481,-2932,-196,15988,-179,-73,-339
377020100,-2492,1408,15340,-208,258,-295
377023743,-2988,1892,15504,-85,-12,99
377027127,-3568,-1184,16440,13,248,133
377030597,-4016,776,16260,-25,161,130
377033980,-2504,-136,16148,-242,386,-130
377037623,-3316,528,15760,-113,255,-221
377041204,-2636,344,16020,-253,24,-392
377044650,-3016,1000,15328,99,-107,144
377048120,-3704,1340,15508,-19,-136,-64
377051677,-3812,-956,16436,78,-47,40
377054973,-2672,396,15800,-182,314,-126
377058530,-2120,1244,15672,-145,-33,-252
377062173,-2848,1192,15724,-155,322,-17
377065831,-2688,2360,15708,-67,123,-1
377069114,-3232,780,15404,75,56,269
377072323,-4300,448,16156,-57,198,88
377075620,-2748,-16,16288,-189,105,-415
377079177,-2808,1388,15552,-129,-7,-125
377082733,-3016,1800,15320,37,-129,-52
377086203,-3256,836,15832,154,-97,155
377089626,-3952,176,15876,-84,157,65
377092908,-2196,248,15900,-213,342,-345
377096440,-2872,1240,15796,-282,300,-132
377100083,-2556,640,16020,-259,332,-324
377103640,-2900,836,15360,3,57,96
377106676,-4124,1068,15988,45,183,227
377110060,-4172,-1856,16972,-70,134,-175
377113703,-2932,1020,15404,-41,25,-50
377117111,-2924,188,15952,-116,-10,-307
377120643,-2864,1120,15768,99,-211,102
377124113,-3116,1876,15572,-4,13,197
377127409,-3324,-1380,16720,-201,311,-276
377131140,-4096,556,16348,-38,166,89
377134436,-2536,148,16048,-371,462,-379
377137993,-3132,812,15748,-116,91,-266
377141488,-3128,2448,15636,15,68,218
377144760,-4204,-1756,16532,103,-103,193
377148403,-4128,792,15836,46,17,41
377151526,-2832,-516,16224,-191,-42,-373
377155170,-2164,1288,15492,-233,92,-327
377158726,-2908,2024,15488,-77,54,-189
377162196,-3216,388,15540,-15,181,115
377165627,-3844,1164,16128,-11,159,98
377168963,-3836,-1604,16776,-221,350,-94
377172606,-3268,684,15944,-73,217,-6
377175903,-2652,452,16032,-246,100,-357
377179460,-3272,828,15448,96,-164,143
377182843,-3244,1768,15348,85,-108,36
377186226,-3592,-1092,16648,-73,-65,-117
377189904,-4040,-84,15908,-107,273,-45
377193364,-2152,748,15916,-180,56,-319
377196810,-2648,1376,15420,-204,235,-74
377200366,-2596,2176,15512,-54,227,12
377203750,-3228,488,15428,52,-3,189
377206959,-4072,796,16152,-6,292,79
377210169,-2716,-236,16180,-243,4,-409
377213639,-2716,1108,15576,-81,7,-154
377217047,-3088,1952,15404,5,-188,-12
377220406,-3696,-1088,16416,155,-184,162
377224049,-4052,404,15860,-76,232,31
377227345,-2260,64,15992,-229,217,-305
377230816,-2904,1072,15760,-271,383,-159
377234459,-2468,2072,15708,-336,347,-345
377238102,-3096,732,15252,52,27,147
377241337,-4020,1196,16148,-14,100,233
377244782,-4160,-1844,16848,-59,34,-136
377248339,-2948,1012,15648,0,129,10
377251549,-2860,-148,16308,-158,-96,-370
377255192,-2844,1540,15560,121,-56,132
377258662,-3176,1832,15396,-19,1,186
377261959,-3188,-1284,16592,-154,370,-256
377265736,-4084,700,16260,-54,252,137
377269072,-2532,-68,15948,-289,371,-379
377272629,-3048,892,15568,-130,228,-231
377276186,-3196,2408,15636,-204,-58,-265
377279829,-3296,444,15520,129,-39,171
377283213,-4040,496,15648,60,-168,98
377286509,-3444,-1176,16412,-80,2,-184
377290018,-2252,1228,15340,-220,103,-292
377293647,-2536,884,15996,-121,-18,-195
377297179,-3228,472,15532,-144,349,-74
377300649,-2696,2048,15468,0,68,157
377303859,-3828,-1532,16900,-224,444,-120
377307589,-4268,476,16096,-55,253,10
377310886,-2476,596,16132,-243,17,-359
377314356,-2952,1544,15404,-69,21,-38
377317764,-3220,1620,15292,75,-191,26
377321122,-3544,-1032,16416,132,-30,179
377324679,-4132,8,15908,-146,200,-57
377327976,-2152,816,15976,-115,99,-285
377331446,-2740,1432,15404,-247,285,-93
377335002,-2576,2228,15544,-237,250,-261
377338646,-3276,404,15328,22,147,193
377341967,-4180,720,16172,33,33,319
377345152,-2588,44,16276,-151,150,-296
377348622,-2792,1292,15460,-124,-41,-144
377352265,-2984,448,16132,-59,-125,-280
377355822,-3176,836,15752,105,-140,148
377359292,-3344,1696,15612,34,-7,241
377362589,-2840,-1308,16656,-271,332,-400
377366366,-3916,580,16236,-127,219,-19
377369789,-2472,744,16004,-256,414,-280
377373346,-2944,952,15524,-87,53,-185
377376729,-3348,2292,15412,62,62,273
377380026,-4068,-1908,17004,111,-24,155
377383582,-4020,560,16012,-54,17,-56
377386879,-2800,272,16036,-110,37,-332
377390388,-2092,1676,15428,-131,-8,-229
377393930,-3156,1824,15452,-80,-4,-38
377397289,-3400,-256,15724,-48,279,27
377400672,-4244,528,16236,-50,224,57
377403969,-3480,-1404,16764,-332,493,-259
377407699,-3024,956,15588,-74,103,-188
377411169,-2684,1292,15952,-156,103,-237
377414812,-3588,208,15512,-17,-134,12
377418220,-3524,1360,15424,121,-72,124
377421666,-3316,-1052,16496,58,-49,51
377425049,-3476,144,15784,-180,307,-188
377428606,-2536,984,16052,-135,15,-178
377432076,-2412,1592,15124,-182,214,-90
377435632,-2960,2156,15504,-91,237,-85
377439102,-4012,-672,16104,-26,167,160
377442597,-4164,452,16076,92,130,290
377445869,-3460,-1516,16776,-252,141,-436
377449599,-2720,1536,15336,-146,71,-166
377453156,-2916,1016,15852,-68,-99,-161
377456713,-3576,64,16100,-1,-120,-45
377460009,-3684,1316,15332,43,100,209
377463392,-2472,-928,16336,-288,153,-462
377467083,-3764,548,16124,-189,321,-88
377470506,-2528,1388,15952,-415,482,-382
377474149,-2932,1232,15128,-28,-14,-76
377477619,-3640,2024,15740,-52,42,24
377480916,-3952,-876,16228,49,-35,85
377484212,-3640,528,15696,-92,190,-130
377487682,-2988,-808,16292,-207,-44,-369
377491369,-2204,1816,15332,0,-23,-71
377494622,-3408,1580,15408,-60,39,37
377497919,-3428,-772,16188,-70,318,-12
377501389,-4232,472,16196,113,190,250
377504772,-3100,-1244,16540,-354,334,-373
377508502,-2892,1160,15540,-134,283,-244
377512146,-2660,2236,15860,-105,-23,-6
377515640,-3024,832,15444,102,-177,137
377519086,-3676,1692,15356,46,-1,89
377522296,-3224,-1344,16508,-135,-29,-314
377526026,-3136,292,15688,-250,367,-313
377529583,-2196,0,15948,-230,61,-378
377532879,-2576,1428,15444,-77,220,32
377536262,-3212,1792,15424,-148,223,4
377539645,-3884,-884,16372,-32,256,118
377543140,-3880,244,16052,-98,247,-104
377546586,-3192,-1032,16572,-295,90,-454
377550229,-2948,1548,15312,-120,69,-159
377553786,-2804,1564,15784,-63,-165,-125
377557429,-2716,1500,15416,112,-167,63
377560899,-3824,840,15568,-54,142,135
377564283,-2260,-352,16232,-155,294,-206
377567987,-3320,632,16072,-262,448,-117
377571483,-2380,48,15960,-405,365,-415
377574953,-2856,1236,15296,60,25,66
377578163,-3868,1676,15652,-43,59,161
377581546,-4084,-1536,16508,14,-25,-29
377585016,-3456,600,15676,-170,124,-170
377588573,-2988,-564,16436,-169,-96,-416
377592258,-2320,1672,15444,-205,258,-299
377595859,-3088,1728,15804,-98,-21,78
377599243,-3488,-1152,16496,0,202,94
377602539,-3912,1040,15928,11,191,192
377605923,-2672,-488,16396,-409,401,-402
377609566,-3324,516,15840,-111,298,-226
377613123,-2860,2124,15912,-279,28,-390
377616704,-3116,1088,15464,146,-140,180
377620236,-2980,1752,15528,11,-53,-12
377623620,-3760,-1192,16516,-9,-63,-39
377627090,-2900,668,15580,-83,303,-7
377630386,-2392,140,16096,-167,-1,-328
377633856,-2856,1292,15296,-90,295,33
377637239,-2576,2064,15588,-52,113,67
377640647,-3976,-1104,16636,-53,312,29
377644092,-3760,296,15936,-17,240,186
377647476,-3028,-724,16392,-250,42,-418
377651033,-3036,1312,15496,-146,120,-154
377654676,-2976,1620,15768,17,-186,-80
377658146,-2836,1096,15772,143,-122,108
377661703,-3792,516,15636,-76,142,86
377665003,-2296,-192,15960,-154,280,-272
377668691,-2976,1024,15688,-301,343,-169
377672286,-2448,256,16216,-312,313,-345
377675843,-3000,876,15192,-73,175,-203
377679313,-3216,2364,15764,-52,9,155
377682610,-4032,-1636,16548,56,58,-35
377685993,-4148,384,16064,-26,57,-14
377689289,-2904,-236,16408,-152,-61,-334
377692979,-2192,1220,15332,-206,252,-263
377696576,-3012,1920,15788,-28,-39,143
377700046,-3120,596,15392,6,302,121
377703256,-4240,684,16212,2,148,159
377706466,-2424,76,16076,-351,441,-365
377709936,-3264,748,15780,-137,148,-218
377713493,-3024,2372,15832,-56,42,130
377716900,-3080,892,15264,95,-90,217
377720172,-4132,556,15592,61,-21,87
377723382,-3000,-584,16548,-214,35,-385
377726939,-2480,1196,15416,-225,143,-270
377730582,-2876,1660,15720,-112,20,-249
377734139,-3000,1012,15268,-66,176,98
377737522,-3800,1052,15696,66,147,219
377740930,-4096,-1516,16820,-199,397,-60
377744549,-3340,512,15836,-23,157,80
377747846,-2644,68,16040,-235,110,-403
377751315,-3084,1220,15520,92,-179,153
377754786,-2960,1716,15364,64,-125,22
377758169,-3588,-1068,16436,-45,-20,-101
377761812,-4008,176,15896,-78,198,13
377765112,-2300,304,16112,-218,125,-342
377768714,-2704,1284,15588,-263,265,-142
377772309,-2604,2160,15720,-60,250,19
377775692,-3172,808,15336,4,0,142
377778728,-4156,848,15960,44,255,173
377782025,-2908,-412,16236,-291,36,-466
377785582,-3016,1204,15524,-117,-1,-138
377789139,-2980,1640,15440,-25,-87,-48
377792635,-2984,1160,15688,108,-229,116
377796200,-3884,516,15740,-19,218,96
377799462,-2076,-48,15848,-215,278,-336
377803019,-3076,1132,15824,-233,372,-122
377806662,-2388,328,16060,-329,351,-366
377810219,-3092,1000,15304,43,-6,102
377813515,-3960,1252,15760,18,59,251
377816836,-4188,-1904,16784,-41,21,-157
377820369,-3168,1040,15688,30,84,-30
377823665,-2732,-204,16276,-178,-125,-314
377827395,-2856,1400,15572,-178,107,-313
377831039,-3140,2140,15460,-17,-3,189
377834422,-3456,-1592,16712,-38,182,115
377837979,-4104,828,16252,-64,289,92
377841300,-2412,-32,16052,-258,340,-189
377844832,-3264,776,15656,-89,228,-215
377848302,-3084,2312,15860,-238,14,-288
377851859,-3380,520,15452,146,-104,200
377855329,-3972,764,15648,34,-73,58
377858539,-3604,-1336,16536,-83,-41,-139
377862182,-2320,1196,15480,-150,365,-129
377865874,-2500,796,15816,-141,-12,-228
377869382,-2452,1484,15372,-169,298,-84
377872939,-2728,2240,15340,-32,93,140
