Time,Accel_X,Accel_Y,Accel_Z,Gyro_X,Gyro_Y,Gyro_Z
22983339,-2748,-232,15952,-118,108,-63
22986809,-2836,-200,16056,-70,123,-87
22990216,-2752,-148,15904,-126,91,-50
22993575,-2780,-200,16008,-67,76,-49
22996872,-2752,-252,16008,-122,155,-52
23000342,-2836,-192,15892,-102,41,-60
23003725,-2804,-168,15992,-76,188,-66
23007108,-2792,-136,16040,-84,70,-60
23010405,-2772,-228,15896,-77,174,-65
23013788,-2836,-152,15988,-79,55,-56
23017109,-2704,-252,15972,-56,164,-77
23020468,-2800,-168,16092,-119,54,-88
23023851,-2812,-220,15952,-56,157,-37
23027234,-2760,-200,16072,-114,111,-69
23030704,-2752,-252,15988,-74,108,-53
23034087,-2780,-204,15884,-129,163,-76
23037557,-2728,-212,15976,-73,57,-54
23040877,-2868,-272,16072,-101,165,-81
23044324,-2816,-148,16076,-103,60,-47
23047707,-2728,-228,16108,-95,160,-50
23051090,-2760,-212,15976,-90,55,-73
23054422,-2868,-120,15928,-67,177,-57
23057770,-2848,-260,15968,-95,59,-81
23061067,-2848,-160,16032,-54,111,-56
23064453,-2744,-204,15880,-119,95,-71
23067936,-2768,-188,15912,-87,66,-63
23071130,-2856,-208,15832,-112,120,-74
23074600,-2792,-276,15996,-94,90,-33
23077896,-2816,-268,15900,-99,181,-55
23081280,-2636,-204,15984,-77,79,-86
23084576,-2812,-228,15972,-108,175,-74
23088046,-2784,-180,15996,-107,70,-80
23091454,-2832,-240,16100,-71,177,-69
23094813,-2712,-180,16012,-114,71,-70
23098196,-2760,-272,15920,-54,140,-55
23101579,-2764,-256,15888,-105,75,-34
23104962,-2776,-260,15892,-75,106,-91
23108345,-2780,-148,15972,-113,101,-69
23111816,-2860,-184,16028,-75,76,-103
23115223,-2812,-188,15896,-120,170,-52
23118669,-2760,-204,15952,-92,57,-76
23121965,-2760,-228,16032,-82,192,-46
23125349,-2808,-220,15772,-83,59,-68
23128645,-2676,-220,16048,-57,146,-63
23132028,-2768,-188,16008,-98,62,-91
23135325,-2948,-216,15908,-72,157,-44
23138708,-2780,-192,15880,-132,103,-69
23142201,-2728,-172,16024,-59,113,-70
23145561,-2836,-200,15968,-119,161,-77
23149031,-2764,-212,16048,-72,66,-49
23152328,-2860,-228,15968,-92,140,-81
23155750,-2652,-244,15884,-89,55,-48
23159007,-2832,-196,15916,-103,194,-55
23162478,-2740,-264,16028,-76,54,-49
23165822,-2832,-220,16000,-81,171,-78
23169157,-2792,-204,15844,-95,62,-54
23172454,-2776,-204,15984,-58,120,-80
23175837,-2844,-260,15872,-103,79,-63
23179220,-2776,-240,15980,-62,123,-78
23182603,-2836,-184,16116,-115,187,-82
23186074,-2864,-168,15916,-92,73,-56
23189373,-2788,-224,15924,-91,177,-56
23192778,-2880,-300,15968,-92,70,-50
23196050,-2768,-204,16044,-93,186,-56
23199433,-2840,-240,15908,-94,46,-83
23202729,-2816,-288,15932,-68,184,-46
23206113,-2776,-200,16132,-79,42,-79
23209409,-2856,-208,15852,-65,116,-43
23212793,-2820,-148,16128,-102,85,-49
23216200,-2744,-100,15980,-79,65,-48
23219472,-2784,-176,16056,-139,190,-82
23222942,-2776,-232,16040,-94,74,-52
23226239,-2804,-292,16012,-75,175,-67
23229622,-2772,-268,16056,-90,61,-78
23232918,-2764,-208,15900,-95,198,-50
23236302,-2800,-220,15980,-115,72,-71
23239708,-2744,-264,16056,-58,142,-44
23243068,-2812,-236,16012,-133,91,-80
23246452,-2796,-272,15984,-81,131,-43
23249835,-2872,-148,15872,-117,100,-64
23253305,-2776,-220,15924,-90,64,-58
23256636,-2740,-108,15964,-129,174,-72
23260071,-2840,-256,16072,-87,84,-61
23263368,-2872,-176,15920,-53,170,-67
23266799,-2796,-236,15972,-111,64,-67
23270134,-2824,-248,15844,-75,117,-49
23273518,-2744,-200,15844,-101,90,-94
23276901,-2756,-172,15992,-88,75,-44
23280197,-2700,-204,15980,-104,147,-72
23283667,-2748,-212,16020,-89,77,-39
23286964,-2844,-328,15960,-82,174,-46
23290371,-2764,-232,16144,-76,49,-63
23293643,-2888,-132,16120,-108,192,-70
23297114,-2728,-172,16068,-91,55,-65
23300410,-2784,-180,15992,-81,197,-73
23303793,-2748,-188,16008,-107,66,-61
23307176,-2776,-188,16156,-69,145,-44
23310560,-2812,-180,15932,-81,64,-100
23313943,-2708,-268,15972,-74,85,-87
23317264,-2800,-184,15856,-121,128,-59
23320709,-2760,-220,15944,-79,90,-54
23324006,-2840,-200,15968,-116,154,-97
23327476,-2704,-168,15884,-71,66,-42
23330772,-2704,-276,16072,-81,164,-64
23334156,-2900,-244,16040,-107,28,-81
23337539,-2800,-184,16108,-80,189,-46
23340945,-2908,-244,16000,-94,68,-64
23344219,-2800,-140,16088,-47,161,-69
23347602,-2800,-248,16028,-127,137,-59
23351072,-2872,-208,15876,-65,110,-62
23354455,-2700,-188,15952,-132,105,-75
23357960,-2844,-236,16048,-92,56,-35
23361222,-2712,-176,16068,-107,153,-47
23364740,-2748,-108,15868,-73,50,-59
23367988,-2892,-272,16060,-119,164,-58
23371458,-2752,-128,15940,-93,64,-58
23374755,-2736,-204,15888,-60,155,-54
23378138,-2956,-296,15892,-104,77,-88
23381521,-2728,-232,15892,-78,106,-48
23384905,-2760,-224,15884,-134,123,-55
23388374,-2720,-208,16100,-81,45,-83
23391695,-2788,-184,15908,-120,163,-61
23395141,-2732,-220,15992,-98,83,-48
23398438,-2748,-148,15840,-104,188,-52
23401907,-2728,-136,16016,-94,56,-58
23405204,-2680,-212,15872,-121,194,-51
23408674,-2764,-164,15936,-105,49,-60
23412057,-2752,-184,15940,-71,185,-39
23415465,-2748,-160,16112,-132,86,-64
23418824,-2924,-172,15800,-47,128,-36
23422207,-2780,-120,15976,-134,134,-98
23425677,-2836,-228,15972,-75,93,-62
23428974,-2740,-252,15908,-128,141,-93
23432444,-2724,-284,15928,-97,54,-42
23435740,-2780,-160,15980,-101,191,-100
23439300,-2724,-200,15916,-109,25,-70
23442703,-2728,-244,15892,-62,190,-22
23446063,-2768,-220,15928,-108,60,-64
23449447,-2960,-224,15968,-45,142,-61
23452830,-2848,-252,15956,-120,82,-59
23456213,-2712,-204,15864,-69,84,-87
23459544,-2796,-232,15876,-121,156,-60
23462980,-2792,-136,15908,-103,48,-60
23466411,-2760,-204,15872,-100,182,-73
23469833,-2696,-172,15888,-103,38,-40
23473216,-2808,-8,15960,-66,166,-62
23476426,-2748,-212,15848,-87,55,-75
23479722,-2768,-160,15928,-63,169,-50
23483106,-2940,-120,15920,-120,100,-53
23486576,-2720,-216,16008,-66,143,-39
23489983,-2740,-260,15980,-141,139,-93
23493429,-2676,-172,15952,-53,81,-38
23496725,-2728,-264,16064,-131,125,-64
23500195,-2704,-164,16008,-91,56,-59
23503492,-2756,-176,16148,-128,168,-59
23506962,-2780,-156,16008,-78,44,-70
23510258,-2672,-236,15872,-78,164,-76
23513642,-2904,-184,15944,-99,73,-69
23516963,-2728,-276,15968,-67,133,-46
23520321,-2776,-236,15832,-111,66,-62
23523705,-2764,-148,15992,-68,91,-48
23527001,-2784,-228,16060,-96,142,-88
23530384,-2772,-284,15880,-78,125,-46
23533767,-2760,-216,16012,-118,193,-43
23537238,-2836,-168,15732,-85,34,-57
23540557,-2804,-268,15888,-134,184,-73
23544004,-2836,-212,15992,-95,55,-92
23547300,-2764,-272,15936,-88,204,-66
23550684,-2728,-348,16016,-127,84,-69
23554067,-2768,-232,15936,-64,136,-57
23557450,-2812,-192,15852,-109,70,-49
23560868,-2768,-220,15912,-52,99,-66
23564133,-2740,-232,16020,-114,107,-61
23567661,-2848,-260,15988,-96,73,-56
23570897,-2740,-192,15984,-118,172,-58
23574366,-2760,-288,15932,-77,75,-69
23577663,-2772,-192,16136,-87,176,-45
23581046,-2772,-308,16028,-76,52,-72
23584343,-2784,-264,15904,-79,169,-62
23587726,-2840,-196,16092,-93,63,-49
23591047,-2856,-192,15852,-57,180,-59
23594406,-2768,-160,16060,-107,71,-66
23597789,-2772,-156,15980,-75,136,-55
23601172,-2780,-248,15784,-106,78,-57
23604556,-2796,-140,15952,-58,101,-73
23607939,-2692,-152,15916,-121,115,-62
23611409,-2812,-140,15976,-66,68,-53
23614730,-2780,-116,15968,-124,146,-84
23618175,-2764,-200,16116,-63,73,-64
23621472,-2860,-224,15924,-92,161,-74
23624855,-2844,-160,15820,-94,46,-53
23628151,-2928,-276,16000,-94,197,-86
23631535,-2712,-184,15784,-119,61,-39
23634918,-2788,-128,15984,-67,165,-54
23638301,-2756,-124,15860,-98,119,-79
23641708,-2792,-288,15960,-79,111,-67
23645068,-2796,-196,15960,-115,95,-47
23648451,-2828,-252,15884,-83,64,-51
23651748,-2740,-244,16184,-99,170,-45
23655131,-2756,-116,15932,-103,63,-81
23658514,-2788,-152,15916,-112,180,-45
23662019,-2816,-184,15924,-92,31,-82
23665329,-2788,-260,15960,-78,173,-34
23668664,-2728,-192,15924,-77,38,-52
23671960,-2812,-112,15868,-79,184,-54
23675344,-2752,-232,15728,-124,77,-85
23678727,-2768,-200,15992,-60,136,-59
23682110,-2776,-176,16000,-141,117,-75
23685580,-2732,-144,16044,-60,124,-58
23688963,-2816,-244,15892,-81,163,-65
23692371,-2864,-184,15944,-76,86,-63
23695643,-2736,-256,15980,-120,175,-78
23699113,-2708,-168,15980,-86,59,-67
23702410,-2860,-196,15812,-88,181,-59
23705793,-2720,-224,16156,-99,60,-55
23709089,-2780,-240,16024,-52,146,-49
23712472,-2744,-200,15968,-95,59,-68
23715794,-2864,-256,16100,-57,105,-86
23719152,-2776,-136,15912,-112,106,-48
23722622,-2792,-180,16056,-82,120,-71
23726006,-2888,-260,15812,-95,174,-46
23729389,-2804,-272,15992,-99,47,-50
23732685,-2836,-244,16072,-113,169,-56
23736155,-2740,-164,15968,-111,62,-77
23739542,-2760,-260,16112,-80,193,-58
23742945,-2792,-196,15924,-91,52,-56
23746218,-2736,-224,15892,-56,158,-58
23749602,-2824,-268,15912,-118,53,-78
23752985,-2792,-248,15888,-68,82,-58
23756281,-2728,-144,16096,-145,128,-81
23759751,-2792,-244,16004,-98,74,-72
23763083,-2776,-220,16024,-83,188,-36
23766479,-2812,-204,15980,-88,51,-82
23769728,-2812,-264,15932,-79,196,-27
23773111,-2836,-236,16004,-82,66,-66
23776407,-2820,-244,16036,-96,202,-55
23779790,-2776,-232,16080,-108,103,-78
23783261,-2852,-220,15916,-77,140,-49
23786644,-2760,-232,15976,-117,94,-67
23790051,-2816,-160,15920,-86,112,-42
23793410,-2888,-184,15888,-124,95,-60
23796793,-2812,-96,16012,-68,85,-53
23800003,-2812,-200,15968,-119,163,-68
23803473,-2836,-144,15956,-88,43,-57
23806770,-2772,-188,15984,-98,173,-83
23810153,-2788,-208,15916,-97,38,-69
23813450,-2708,-276,15940,-73,185,-57
23816857,-2844,-168,16048,-96,55,-60
23820129,-2896,-188,15936,-84,169,-44
23823512,-2764,-292,16000,-116,72,-72
23826896,-2780,-152,15960,-53,105,-74
23830279,-2696,-212,15872,-118,141,-85
23833749,-2724,-240,15928,-55,88,-63
23837045,-2748,-228,15884,-117,157,-41
23840539,-2816,-252,15984,-78,64,-68
23843812,-2708,-256,15996,-99,169,-68
23847195,-2820,-264,15952,-125,49,-80
23850579,-2836,-184,16040,-63,190,-64
23853962,-2740,-248,15996,-97,34,-65
23857258,-2860,-228,15956,-75,86,-70
23860555,-2796,-308,16044,-77,90,-81
23863886,-2768,-292,15988,-64,145,-53
23867283,-2768,-132,15928,-116,126,-48
23870705,-2832,-140,15956,-70,117,-65
23874088,-2844,-212,15928,-105,170,-68
23877558,-2772,-244,15912,-96,67,-52
23880854,-2916,-244,16016,-112,192,-56
23884324,-2788,-212,16004,-85,64,-59
23887621,-2748,-184,15936,-79,144,-76
23891029,-2812,-228,16188,-127,112,-72
23894474,-2824,-228,15916,-45,104,-63
23897857,-2772,-148,16004,-120,81,-91
23901241,-2824,-136,15924,-78,88,-78
23904537,-2752,-148,16000,-127,160,-63
23908007,-2864,-160,16020,-77,49,-71
23911304,-2856,-244,16016,-83,172,-44
23914711,-2744,-236,15944,-97,69,-58
23917983,-2776,-172,16044,-63,173,-61
23921366,-2820,-212,15916,-97,72,-81
23924663,-2716,-184,16024,-69,164,-79
23928046,-2764,-152,15856,-127,113,-59
23931516,-2788,-284,15888,-67,96,-32
23934813,-2832,-208,15980,-119,163,-65
23938283,-2776,-188,15912,-81,74,-45
23941603,-2840,-156,15892,-117,147,-69
23945049,-2792,-172,15964,-84,71,-67
23948346,-2824,-200,16008,-95,172,-74
23951729,-2780,-228,16024,-127,54,-71
23955112,-2788,-232,16004,-64,160,-32
23958496,-2844,-136,15916,-94,65,-65
23961792,-2756,-204,15952,-90,90,-81
23965156,-2784,-308,15904,-129,102,-73
23968559,-2776,-216,16044,-76,97,-49
23971855,-2928,-132,15984,-99,146,-50
23975238,-2740,-188,15836,-76,55,-53
23978535,-2740,-212,15840,-122,164,-92
23982005,-2752,-240,15960,-90,43,-44
23985301,-2836,-244,16012,-71,148,-47
23988685,-2776,-200,15808,-123,125,-102
23992266,-2812,-232,15960,-80,124,-58
23995625,-2900,-148,16048,-84,181,-59
23999008,-2748,-208,15948,-77,55,-77
24002304,-2836,-156,15904,-106,159,-66
24005774,-2740,-256,15872,-104,84,-57
24009158,-2852,-280,15912,-77,213,-74
24012541,-2744,-284,15936,-131,101,-65
24016035,-2784,-236,15920,-53,162,-51
24019394,-2792,-236,15972,-138,140,-59
24022864,-2848,-364,16012,-83,92,-92
24026161,-2856,-276,15984,-127,109,-69
24029631,-2716,-208,15872,-101,87,-51
24033014,-2752,-216,15796,-112,167,-78
24036484,-2888,-160,15888,-97,68,-63
24039805,-2772,-280,15844,-68,181,-42
24043163,-2888,-188,15816,-109,31,-81
24046547,-2820,-188,16036,-66,140,-39
24049930,-2796,-352,15940,-96,79,-60
24053226,-2864,-176,16068,-87,111,-44
24056610,-2768,-288,15924,-119,93,-58
24059993,-2776,-180,15864,-67,126,-64
24063376,-2764,-356,15884,-92,171,-68
24066879,-2780,-200,15988,-88,83,-55
24070056,-2708,-76,15904,-106,148,-57
24073439,-2664,-240,15896,-94,78,-77
24076736,-2924,-212,16000,-105,178,-54
24080206,-2884,-240,15892,-100,53,-74
24083589,-2780,-200,15916,-84,187,-53
24086972,-2780,-192,16012,-98,45,-61
24090309,-2764,-188,16100,-75,131,-35
24093652,-2836,-352,16000,-100,85,-66
24097035,-2748,-320,16028,-67,72,-74
24100332,-2812,-160,16096,-156,127,-76
24103802,-2748,-152,15920,-68,98,-47
24107098,-2720,-312,16056,-98,149,-58
24110482,-2700,-252,16080,-97,80,-80
24113778,-2780,-196,16068,-98,172,-43
24117186,-2868,-224,16064,-94,52,-90
24120458,-2720,-172,16000,-65,175,-63
24123841,-2724,-220,16008,-91,59,-57
24127138,-2812,-288,15904,-55,112,-68
24130521,-2752,-208,15904,-90,76,-36
24133817,-2852,-220,16044,-74,101,-79
24137200,-2716,-208,16128,-116,88,-80
24140608,-2676,-200,15960,-64,137,-52
24143967,-2824,-188,15860,-102,173,-50
24147437,-2816,-308,15944,-82,88,-55
24150734,-2756,-232,15888,-112,161,-78
24154204,-2728,-204,16036,-80,29,-46
24157500,-2852,-208,15996,-96,190,-65
24160883,-2784,-276,15980,-111,67,-87
24164270,-2752,-156,15972,-78,187,-31
24167719,-2736,-236,15984,-100,86,-55
24171033,-2764,-288,16016,-79,116,-63
24174416,-2844,-208,15916,-124,98,-56
24177800,-2804,-280,15988,-88,74,-97
24181096,-2876,-236,16004,-102,138,-64
24184566,-2752,-288,15860,-59,89,-70
24187862,-2812,-244,15812,-96,185,-36
24191270,-2824,-256,15924,-68,78,-67
24194542,-2816,-316,15992,-85,179,-47
24197925,-2732,-280,15908,-95,77,-79
24201222,-2800,-140,15960,-75,195,-72
24204605,-2804,-244,15876,-111,110,-66
24208075,-2752,-232,15908,-75,118,-62
24211459,-2788,-156,15980,-123,139,-91
24214953,-2908,-200,15908,-66,84,-34
24218225,-2828,-168,16016,-120,132,-67
24221695,-2784,-288,16076,-94,39,-58
24224992,-2756,-244,15896,-84,176,-75
24228375,-2832,-296,15872,-81,62,-61
24231671,-2760,-216,16040,-78,185,-77
24235055,-2772,-188,15960,-97,66,-40
24238351,-2752,-244,15884,-62,125,-67
24241759,-2800,-216,16004,-112,84,-77
24245117,-2752,-160,15976,-59,152,-58
24248501,-2836,-216,15936,-115,128,-82
24251971,-2796,-152,16084,-68,111,-56
24255354,-2748,-124,15812,-129,146,-75
24258824,-2808,-240,16012,-62,94,-57
24262121,-2832,-336,16008,-95,136,-71
24265551,-2792,-240,16024,-79,58,-50
24268835,-2692,-164,15980,-95,179,-82
24272184,-2876,-204,15988,-114,71,-81
24275567,-2788,-288,15976,-75,158,-69
24278950,-2824,-176,15996,-96,60,-80
24282247,-2828,-288,15996,-72,107,-85
24285630,-2780,-168,15980,-126,100,-88
24289103,-2820,-204,15960,-98,72,-72
24292421,-2888,-188,15976,-125,162,-52
24295866,-2804,-220,15948,-89,81,-67
24299163,-2864,-204,15836,-90,158,-64
24302546,-2744,-260,15932,-82,70,-87
24305842,-2812,-252,15988,-86,173,-57
24309226,-2792,-176,15920,-110,65,-69
24312609,-2848,-240,15692,-82,152,-60
24316017,-2804,-288,15868,-131,121,-54
24319462,-2812,-160,15888,-89,106,-54
24322846,-2712,-176,16016,-110,87,-58
24326229,-2776,-112,15936,-77,82,-46
24329525,-2772,-108,15820,-98,143,-51
24332909,-2728,-200,15848,-110,60,-43
24336292,-2772,-244,15988,-80,174,-49
24339700,-2760,-172,16032,-99,85,-59
24342972,-2724,-172,15976,-76,160,-47
24346355,-2736,-148,16032,-100,43,-71
24349738,-2668,-144,16084,-65,168,-67
24353121,-2800,-196,16116,-114,96,-51
24356505,-2780,-224,16096,-60,140,-51
24359888,-2840,-300,15900,-109,145,-69
24363358,-2832,-156,16036,-83,98,-53
24366701,-2720,-240,15912,-121,143,-56
24370159,-2840,-236,15948,-92,43,-64
24373421,-2728,-268,15916,-86,191,-49
24376804,-2784,-148,15956,-96,57,-74
24380101,-2836,-268,15924,-86,166,-48
24383484,-2748,-168,16040,-108,63,-86
24386867,-2728,-188,15948,-72,112,-83
24390275,-2832,-252,15788,-102,94,-68
24393634,-2660,-236,15852,-88,93,-54
24396930,-2732,-224,15980,-112,139,-66
24400400,-2736,-188,16076,-80,93,-57
24403696,-2872,-176,15992,-93,166,-66
24407080,-2780,-252,15964,-92,58,-61
24410376,-2796,-256,15904,-141,166,-94
24413846,-2824,-144,15924,-103,61,-64
24417254,-2744,-244,15832,-65,171,-36
24420613,-2724,-152,16048,-101,83,-66
24423996,-2804,-176,15992,-52,117,-58
24427379,-2708,-128,15952,-107,81,-93
24430763,-2840,-272,15956,-56,55,-69
24434059,-2736,-284,15944,-126,144,-29
24437529,-2788,-272,15932,-72,62,-54
24440850,-2724,-268,15956,-97,166,-56
24444209,-2792,-320,15844,-69,80,-46
24447505,-2884,-256,16032,-97,181,-43
24450889,-2784,-196,15756,-89,46,-46
24454185,-2780,-172,16000,-82,190,-39
24457568,-2788,-208,15788,-128,84,-82
24460951,-2844,-256,15912,-58,128,-59
24464338,-2784,-272,15832,-102,167,-63
24467852,-2680,-136,15892,-91,76,-65
24471136,-2828,-160,15840,-102,148,-83
24474571,-2940,-256,15928,-92,67,-67
24477868,-2912,-160,15928,-73,181,-49
24481251,-2736,-244,16048,-91,43,-71
24484548,-2716,-280,15920,-72,157,-52
24487931,-2820,-188,15904,-103,53,-72
24491338,-2784,-204,15944,-64,131,-29
24494697,-2816,-224,16088,-119,70,-90
24498080,-2788,-224,16012,-64,146,-68
24501464,-2812,-172,15932,-104,155,-49
24504934,-2808,-280,15980,-64,90,-77
24508230,-2780,-308,16096,-96,193,-83
24511614,-2716,-124,16008,-88,62,-43
24514935,-2772,-120,15992,-101,172,-67
24518380,-2836,-104,15796,-74,70,-58
24521677,-2768,-156,15940,-69,184,-33
24525060,-2760,-204,15980,-110,66,-60
24528443,-2856,-284,15952,-88,177,-71
24531826,-2704,-216,16024,-120,62,-61
24535209,-2800,-320,15956,-65,126,-48
24538593,-2784,-244,15980,-109,84,-61
24542001,-2744,-192,15992,-94,75,-70
24545273,-2784,-176,16044,-131,178,-42
24548742,-2772,-212,15964,-76,76,-60
24552039,-2832,-248,15964,-84,179,-41
24555422,-2860,-308,16104,-94,76,-71
24558719,-2824,-184,15896,-95,194,-26
24562102,-2852,-264,15912,-98,61,-78
24565458,-2780,-124,15996,-70,153,-46
24568782,-2780,-200,15840,-120,132,-48
24572287,-2876,-240,15904,-67,104,-63
24575635,-2888,-272,15980,-112,111,-77
24579105,-2780,-212,15840,-79,77,-51
24582402,-2668,-208,15980,-117,176,-60
24585872,-2792,-96,16108,-80,53,-66
24589085,-2728,-164,16056,-73,173,-46
24592489,-2816,-228,15964,-100,32,-37
24595848,-2732,-240,15900,-63,110,-55
24599231,-2760,-316,16020,-85,92,-58
24602527,-2924,-232,15980,-68,150,-52
24605911,-2788,-148,15892,-129,140,-72
24609381,-2796,-176,16032,-81,93,-54
24612677,-2792,-240,15880,-97,193,-84
24616085,-2684,-260,15900,-85,59,-64
24619357,-2696,-220,15960,-117,163,-56
24622827,-2712,-228,15932,-86,76,-95
24626124,-2820,-228,16048,-88,185,-73
24629507,-2812,-232,15840,-118,96,-76
24632890,-2964,-224,15996,-44,160,-60
24636273,-2796,-168,16024,-112,58,-69
24639681,-2848,-164,16004,-73,95,-54
24642953,-2808,-232,16028,-91,104,-51
24646336,-2812,-216,15872,-88,143,-79
24649719,-2844,-188,16056,-123,149,-79
24653190,-2868,-184,16088,-104,80,-52
24656573,-2864,-116,15956,-94,164,-75
24659956,-2736,-248,15868,-107,46,-61
24663339,-2816,-256,16092,-65,140,-73
24666770,-2844,-240,16008,-129,55,-71
24670106,-2812,-232,15884,-66,186,-45
24673524,-2756,-220,15968,-95,89,-70
24676786,-2724,-204,15932,-72,136,-63
24680169,-2824,-244,15960,-115,91,-52
24683552,-2740,-164,16036,-73,94,-67
24686848,-2736,-168,16036,-109,133,-66
24690343,-2852,-216,15928,-91,50,-66
24693615,-2896,-288,15936,-79,192,-79
24696998,-2740,-228,16100,-109,39,-51
24700381,-2848,-248,15904,-68,150,-79
24703765,-2812,-248,15824,-87,74,-57
24707061,-2800,-308,15972,-61,182,-63
24710445,-2756,-192,15948,-116,71,-93
24713828,-2792,-288,15912,-52,137,-57
24717236,-2772,-200,15920,-125,130,-77
24720681,-2804,-188,15776,-71,87,-67
24723977,-2788,-144,16044,-132,168,-85
24727448,-2844,-224,16044,-91,94,-53
24730744,-2728,-192,15992,-83,178,-70
24734127,-2872,-204,15996,-121,65,-81
24737511,-2792,-192,15836,-57,143,-35
24740918,-2832,-252,15948,-90,49,-48
24744190,-2752,-164,16060,-72,118,-86
24747573,-2828,-244,15940,-109,75,-74
24750957,-2720,-232,15980,-69,90,-51
24754253,-2744,-200,16004,-140,156,-59
24757723,-2828,-216,16004,-73,92,-26
24761020,-2840,-196,16012,-79,171,-84
24764407,-2772,-224,16024,-84,65,-55
24767747,-2868,-148,15948,-99,163,-60
24771083,-2704,-264,16040,-93,49,-79
24774414,-2736,-200,15968,-76,174,-62
24777762,-2696,-148,16044,-116,58,-57
24781146,-2712,-244,15964,-66,143,-55
24784529,-2716,-168,15992,-111,47,-48
24787912,-2704,-268,15868,-66,113,-48
24791320,-2688,-192,15884,-130,118,-50
24794766,-2816,-228,15948,-98,67,-45
24798062,-2840,-240,15924,-97,159,-79
24801445,-2872,-240,15972,-81,83,-65
24804742,-2772,-212,16056,-86,177,-65
24808125,-2908,-144,15844,-90,62,-54
24811421,-2736,-256,16080,-85,176,-54
24814829,-2824,-216,15904,-106,77,-53
24818188,-2812,-184,16144,-76,114,-77
24821571,-2840,-212,15844,-131,89,-50
24824954,-2780,-320,16064,-69,74,-76
24828251,-2832,-252,16028,-110,134,-82
24831721,-2708,-340,15864,-89,76,-53
24835017,-2764,-208,16000,-111,174,-56
24838488,-2836,-288,15888,-86,70,-51
24841809,-2748,-284,16052,-74,213,-63
24845167,-2860,-204,15968,-76,54,-65
24848464,-2756,-216,15948,-78,143,-55
24851847,-2760,-232,15916,-105,78,-72
24855230,-2836,-268,15964,-70,136,-67
24858614,-2760,-192,15812,-99,108,-51
24861997,-2764,-220,15900,-84,113,-58
24865427,-2864,-180,15972,-117,178,-79
24868850,-2824,-272,16036,-95,52,-48
24872146,-2860,-276,15888,-98,147,-77
24875565,-2716,-276,16052,-98,69,-38
24878826,-2788,-160,15984,-117,174,-82
24882296,-2768,-232,15968,-97,66,-87
24885593,-2804,-160,15840,-78,184,-37
24888976,-2788,-184,15916,-113,46,-85
24892384,-2844,-196,15960,-75,125,-46
24895742,-2844,-228,16036,-132,84,-71
24899126,-2804,-212,15948,-65,130,-70
24902509,-2700,-232,15880,-135,150,-71
24905979,-2844,-244,16036,-74,103,-66
24909362,-2784,-252,16032,-79,176,-29
24912745,-2788,-272,15816,-92,51,-100
24916153,-2792,-136,16060,-57,140,-76
24919512,-2828,-188,15904,-93,73,-36
24922809,-2780,-132,15972,-77,179,-40
24926192,-2760,-216,15904,-134,119,-56
24929662,-2776,-224,16020,-65,87,-69
24932958,-2812,-280,15892,-116,92,-73
24936342,-2848,-296,15744,-67,55,-67
24939663,-2828,-216,15912,-98,154,-53
24943021,-2808,-200,15924,-101,47,-62
24946405,-2856,-172,16040,-71,151,-76
24949788,-2772,-208,15896,-109,83,-85
24953171,-2764,-232,15904,-74,80,-63
24956468,-2848,-244,16004,-82,114,-66
24959851,-2724,-276,15876,-89,93,-63
24963147,-2840,-160,15900,-121,171,-49
24966665,-2752,-228,15996,-77,55,-69
24969914,-2740,-164,15784,-77,179,-40
24973297,-2812,-276,15972,-94,50,-91
24976628,-2840,-212,15924,-94,196,-13
24979977,-2704,-224,15904,-92,70,-72
24983273,-2816,-168,16084,-96,158,-46
24986656,-2856,-140,15960,-108,71,-76
24990064,-2700,-176,15848,-57,107,-41
24993423,-2760,-232,15876,-116,86,-75
24996806,-2732,-172,15820,-74,93,-91
25000103,-2836,-244,15980,-110,139,-53
25003573,-2792,-216,16032,-78,93,-37
25006869,-2860,-216,16144,-129,213,-78
25010339,-2748,-180,15896,-83,69,-51
25013636,-2848,-156,16112,-126,175,-85
25017130,-2744,-172,15972,-102,50,-75
25020489,-2748,-192,15988,-94,177,-52
25023872,-2776,-184,15932,-124,69,-75
25027255,-2796,-244,16040,-36,151,-38
25030639,-2800,-216,16016,-146,125,-61
25034109,-2768,-276,16012,-39,94,-58
25037405,-2696,-284,15916,-106,104,-58
25040900,-2668,-140,16068,-80,31,-67
25044172,-2696,-172,15992,-105,159,-79
25047642,-2692,-156,16064,-86,47,-83
25050938,-2800,-204,15932,-90,204,-54
25054322,-2800,-172,16124,-104,68,-77
25057705,-2756,-216,15988,-76,176,-32
25061088,-2832,-184,15972,-87,46,-47
25064388,-2688,-352,15876,-82,188,-53
25067869,-2768,-312,15956,-109,63,-53
25071151,-2748,-276,15912,-48,189,-56
25074534,-2812,-236,15984,-115,115,-79
25078043,-2808,-172,15900,-52,129,-50
25081387,-2796,-200,16008,-124,166,-74
25084857,-2812,-172,15940,-75,66,-62
25088154,-2784,-172,16064,-127,146,-73
25091649,-2776,-272,15924,-77,54,-79
25094920,-2776,-268,15960,-88,203,-46
25098304,-2804,-308,15816,-119,72,-42
25101687,-2876,-256,15956,-44,167,-38
25105070,-2832,-268,15948,-108,58,-71
25108454,-2908,-256,16044,-75,126,-39
25111837,-2772,-220,15948,-103,117,-73
25115331,-2772,-128,16020,-64,66,-63
25118603,-2768,-244,15828,-106,148,-60
25122073,-2924,-212,15928,-102,86,-74
25125457,-2844,-200,15924,-84,182,-44
25128840,-2848,-240,15972,-103,51,-61
25132223,-2888,-240,15956,-43,142,-49
25135606,-2792,-164,15864,-113,69,-57
25138993,-2780,-200,15960,-60,174,-28
25142397,-2920,-220,16048,-115,114,-88
25145843,-2828,-168,16064,-82,110,-67
25149226,-2720,-168,15860,-113,169,-64
25152696,-2780,-180,16164,-87,86,-64
25155992,-2704,-216,15892,-83,181,-72
25159376,-2876,-220,15908,-97,39,-66
25162672,-2780,-200,16032,-88,178,-77
25166102,-2772,-212,16064,-88,48,-41
25169352,-2812,-304,15992,-74,178,-59
25172735,-2844,-152,16136,-73,82,-67
25176032,-2796,-332,15884,-81,86,-35
25179363,-2728,-148,16040,-142,124,-96
25182798,-2712,-236,16112,-72,100,-53
25186181,-2744,-188,15972,-110,183,-64
25189676,-2812,-176,15980,-82,81,-41
25192948,-2736,-232,15944,-86,220,-57
25196331,-2760,-136,16060,-102,53,-55
25199714,-2776,-120,15812,-74,173,-64
25203098,-2812,-200,15936,-93,97,-99
25206394,-2792,-208,16072,-60,138,-60
25209778,-2732,-176,16024,-127,106,-64
25213247,-2712,-240,15928,-70,110,-74
25216655,-2840,-168,15772,-133,83,-71
25220014,-2836,-272,16056,-79,65,-49
25223310,-2744,-104,15948,-112,160,-100
25226867,-2844,-192,16040,-96,51,-63
25230164,-2832,-276,15892,-114,205,-48
25233634,-2756,-236,15916,-80,54,-48
25236930,-2696,-292,15980,-79,179,-78
25240338,-2760,-276,15904,-78,51,-48
25243610,-2840,-260,15924,-54,139,-56
25246993,-2736,-208,15924,-96,66,-81
25250290,-2860,-272,15952,-64,160,-68
25253673,-2712,-232,16056,-111,122,-52
25257143,-2880,-176,16064,-62,97,-30
25260439,-2828,-272,16048,-119,73,-73
25263823,-2804,-248,16024,-56,74,-60
25267166,-2804,-248,15916,-96,178,-76
25270502,-2844,-192,15872,-101,40,-86
25273886,-2788,-224,15992,-52,194,-58
25277269,-2772,-248,15948,-102,48,-80
25280687,-2816,-256,15852,-76,141,-60
25284035,-2772,-200,15900,-103,61,-84
25287419,-2848,-152,15960,-73,80,-48
25290740,-2852,-256,15904,-120,171,-76
25294185,-2800,-196,16048,-73,90,-58
25297482,-2804,-184,15924,-114,168,-61
25300952,-2884,-232,16000,-91,58,-46
25304248,-2712,-152,15932,-86,201,-78
25307632,-2868,-148,15996,-104,53,-52
25311015,-2840,-164,16004,-71,173,-48
25314401,-2860,-160,15944,-127,101,-83
25317893,-2796,-216,16040,-57,108,-42
25321251,-2836,-216,16036,-120,170,-61
25324721,-2872,-216,16036,-67,90,-79
25328018,-2720,-160,15968,-138,138,-23
25331488,-2800,-220,15944,-99,51,-43
25334784,-2796,-284,15936,-87,195,-56
25338167,-2832,-236,15932,-100,73,-46
25341575,-2780,-216,16064,-84,167,-75
25344934,-2696,-152,16036,-96,36,-56
25348230,-2924,-276,15968,-55,126,-64
25351614,-2812,-128,15984,-127,107,-75
25355084,-2688,-256,16000,-95,65,-30
25358380,-2848,-180,15996,-100,146,-75
25361850,-2776,-212,15928,-83,77,-86
25365194,-2908,-152,15976,-82,191,-52
25368530,-2820,-212,15900,-77,60,-47
25371827,-2836,-284,15968,-83,178,-87
25375210,-2664,-168,15984,-97,57,-83
25378506,-2700,-296,15996,-54,169,-45
25381925,-2692,-140,16100,-106,95,-78
25385273,-2772,-232,15944,-50,139,-71
25388656,-2824,-200,15884,-133,76,-68
25392064,-2696,-340,16024,-81,69,-65
25395336,-2776,-204,15912,-113,136,-75
25398806,-2796,-304,15952,-55,72,-83
25402102,-2728,-172,15704,-121,190,-59
25405572,-2760,-196,15948,-93,67,-79
25408869,-2748,-212,16200,-62,170,-61
25412252,-2860,-324,16016,-92,34,-90
25415573,-2784,-260,16052,-80,196,-53
25418932,-2812,-216,16084,-96,76,-70
25422228,-2684,-288,15904,-52,158,-43
25425612,-2832,-260,15948,-117,64,-70
25428995,-2768,-128,16028,-67,126,-29
25432378,-2816,-260,15844,-116,108,-69
25435848,-2788,-184,16008,-107,60,-54
25439235,-2736,-224,15992,-111,191,-40
25442726,-2704,-208,16040,-82,57,-74
25445998,-2796,-204,15896,-99,190,-55
25449381,-2736,-244,15860,-89,68,-81
25452678,-2684,-172,15936,-54,126,-51
25456061,-2688,-144,15860,-119,92,-70
25459444,-2676,-220,16072,-59,141,-62
25462827,-2712,-296,15988,-129,111,-79
25466345,-2788,-192,15936,-83,122,-41
25469680,-2804,-208,16108,-99,149,-91
25473064,-2812,-188,16024,-101,79,-59
25476447,-2736,-244,15868,-114,110,-69
25479917,-2800,-168,15996,-69,65,-55
25483249,-2784,-268,15852,-90,178,-80
25486597,-2848,-232,16040,-96,65,-72
25489918,-2748,-176,15904,-84,162,-38
25493277,-2780,-260,15976,-88,57,-63
25496573,-2792,-216,15920,-73,120,-54
25499956,-2720,-240,16000,-114,94,-73
25503340,-2804,-156,15996,-59,139,-63
25506723,-2752,-244,15948,-114,130,-50
25510193,-2816,-348,15944,-82,79,-59
25513489,-2836,-320,15992,-90,172,-74
25516897,-2736,-160,15876,-89,47,-38
25520169,-2780,-324,15872,-120,174,-69
25523639,-2764,-216,16040,-80,46,-48
25526936,-2780,-220,15984,-102,187,-68
25530405,-2724,-188,15980,-97,70,-54
25533702,-2772,-124,16044,-83,141,-43
25537085,-2712,-112,16016,-100,62,-60
25540493,-2804,-292,15912,-63,69,-43
25543765,-2792,-156,15848,-108,119,-53
25547235,-2784,-168,15884,-95,63,-54
25550532,-2820,-212,15948,-114,161,-69
25554002,-2876,-316,16044,-82,99,-52
25557298,-2744,-196,16008,-75,192,-66
25560681,-2828,-312,15836,-100,54,-79
25564068,-2772,-248,15976,-60,129,-50
25567507,-2808,-176,15980,-121,69,-94
25570831,-2784,-232,16104,-43,150,-62
25574214,-2788,-160,15916,-114,134,-70
25577684,-2868,-172,15960,-65,113,-22
25581068,-2740,-180,15948,-105,176,-76
25584572,-2788,-240,15820,-87,55,-59
25587834,-2916,-196,16036,-94,165,-58
25591242,-2716,-332,16032,-108,79,-45
25594600,-2836,-268,15908,-60,168,-43
25597984,-2868,-240,15844,-107,76,-78
25601367,-2692,-228,15992,-57,118,-46
25604750,-2792,-172,15988,-116,85,-65
25608134,-2772,-148,15976,-92,132,-52
25611517,-2792,-132,16008,-105,106,-70
25615011,-2756,-112,15964,-108,68,-63
25618370,-2752,-236,15960,-115,162,-64
25621840,-2780,-244,16020,-75,67,-61
25625137,-2688,-184,16016,-84,169,-54
25628520,-2760,-228,16036,-69,57,-98
25631816,-2824,-244,16168,-61,136,-24
25635200,-2820,-204,15912,-112,66,-75
25638583,-2776,-280,15884,-41,162,-61
25641991,-2832,-312,15900,-110,95,-72
25645349,-2852,-264,16012,-79,116,-27
25648733,-2800,-284,15976,-115,189,-64
25652202,-2824,-352,15888,-69,57,-92
25655499,-2784,-164,16068,-122,161,-83
25658969,-2808,-176,16012,-99,94,-68
25662265,-2772,-176,15908,-70,172,-57
25665696,-2744,-264,15904,-115,85,-92
25669032,-2672,-268,15788,-68,142,-34
25672415,-2732,-188,15924,-109,61,-75
25675798,-2816,-264,15860,-84,123,-55
25679182,-2760,-336,15908,-142,121,-84
25682652,-2744,-268,15924,-91,62,-75
25685983,-2780,-256,15868,-82,194,-60
25689335,-2688,-244,15948,-101,68,-54
25692744,-2768,-172,16052,-73,170,-59
25696098,-2812,-248,15952,-104,61,-52
25699481,-2772,-172,15952,-77,130,-50
25702865,-2740,-200,16016,-104,73,-46
25706248,-2740,-212,16068,-57,98,-57
25709544,-2812,-244,15904,-86,159,-91
25712927,-2744,-276,15912,-94,67,-29
25716248,-2868,-188,16068,-106,133,-77
25719694,-2776,-224,16064,-93,47,-57
25722991,-2800,-204,16000,-86,184,-56
25726374,-2768,-216,15928,-108,81,-37
25729757,-2860,-220,16244,-53,134,-62
25733140,-2792,-216,16044,-112,81,-72
25736524,-2944,-192,15988,-61,77,-46
25739844,-2756,-212,16024,-120,116,-76
25743290,-2768,-196,15804,-88,66,-59
25746587,-2820,-208,15896,-106,172,-72
25750057,-2804,-216,15952,-85,74,-70
25753353,-2740,-284,15872,-87,159,-39
25756736,-2716,-204,16152,-92,73,-92
25760033,-2740,-156,15848,-98,178,-65
25763416,-2788,-212,15836,-103,76,-68
25766846,-2748,-232,15828,-61,138,-62
25770182,-2960,-156,16036,-140,111,-77
25773653,-2856,-200,15912,-84,114,-80
25777036,-2832,-236,15992,-117,94,-67
25780419,-2748,-228,16076,-81,86,-67
25783715,-2816,-228,15968,-110,156,-62
25787220,-2748,-300,16064,-84,60,-47
25790506,-2796,-128,15876,-75,202,-59
25793865,-2876,-120,16100,-97,68,-56
25797162,-2792,-192,15868,-78,144,-65
25800545,-2736,-216,16012,-111,83,-72
25803928,-2788,-176,16068,-78,84,-58
25807225,-2760,-264,16104,-104,131,-64
25810695,-2912,-144,15972,-78,105,-61
25814081,-2824,-220,15724,-103,172,-44
25817573,-2900,-220,16116,-84,59,-31
25820844,-2824,-236,15968,-85,152,-61
25824228,-2784,-296,15780,-75,76,-89
25827524,-2776,-252,15884,-75,182,-34
25830908,-2896,-164,15836,-86,91,-67
25834204,-2780,-188,15948,-76,155,-68
25837587,-2896,-196,15984,-84,71,-77
25840908,-2756,-184,15936,-57,121,-41
25844267,-2792,-108,15928,-128,91,-48
25847650,-2796,-164,16068,-58,121,-44
25851033,-2772,-200,16036,-110,144,-71
25854503,-2752,-260,15900,-77,88,-67
25857800,-2668,-240,15940,-96,189,-53
25861183,-2840,-272,15864,-91,63,-77
25864527,-2768,-208,15956,-112,177,-63
25867950,-2844,-184,16056,-118,34,-74
25871333,-2752,-264,15840,-87,180,-31
25874716,-2868,-260,15848,-106,69,-54
25878100,-2740,-188,16032,-75,125,-58
25881483,-2768,-252,16000,-108,74,-92
25884866,-2772,-152,16072,-56,97,-73
25888197,-2708,-244,15928,-118,122,-70
25891657,-2704,-224,16004,-78,63,-65
25894929,-2664,-260,15980,-105,169,-60
25898399,-2828,-236,16080,-85,55,-42
25901696,-2804,-228,15944,-81,208,-69
25905079,-2788,-176,15868,-102,36,-76
25908462,-2736,-256,15892,-59,189,-56
25911845,-2852,-200,15952,-94,54,-83
25915166,-2804,-188,15960,-59,186,-37
25918525,-2764,-172,16068,-118,79,-71
25921908,-2804,-208,16044,-76,149,-37
25925292,-2704,-180,15968,-113,61,-71
25928675,-2704,-268,16028,-76,80,-75
25931971,-2832,-168,15964,-116,117,-75
25935441,-2828,-228,16004,-70,71,-51
25938738,-2728,-176,15856,-116,147,-76
25942232,-2724,-180,15852,-79,77,-55
25945504,-2860,-132,15996,-100,185,-52
25948974,-2780,-280,16048,-92,56,-51
25952271,-2740,-232,15888,-68,151,-58
25955654,-2760,-240,15912,-67,67,-82
25958950,-2696,-172,15948,-70,146,-59
25962334,-2828,-180,16056,-126,135,-44
25965852,-2684,-244,15968,-74,108,-76
25969187,-2900,-236,15872,-130,172,-48
25972657,-2784,-160,15872,-84,60,-83
25975954,-2728,-196,15892,-119,148,-46
25979423,-2724,-212,15792,-97,59,-47
25982720,-2820,-284,15860,-86,161,-64
25986103,-2704,-200,16068,-106,85,-56
25989530,-2836,-272,16124,-79,165,-64
25992870,-2844,-244,16056,-80,48,-70
25996166,-2684,-224,15960,-77,131,-39
25999550,-2816,-220,16072,-104,104,-68
26003019,-2716,-212,16012,-82,82,-54
26006316,-2716,-96,15996,-111,135,-76
26009699,-2764,-272,16000,-98,81,-55
26012996,-2820,-160,15752,-83,184,-83
26016404,-2864,-164,15952,-124,48,-38
26019762,-2816,-236,16048,-75,167,-93
26023146,-2888,-208,15916,-112,54,-62
26026529,-2812,-208,15864,-77,176,-46
26029912,-2828,-244,15856,-109,113,-53
26033382,-2696,-288,16004,-92,100,-41
26036765,-2848,-208,15928,-123,125,-56
26040260,-2740,-256,16024,-75,55,-72
26043532,-2832,-296,15952,-98,179,-75
26046915,-2764,-200,15968,-84,77,-62
26050211,-2816,-228,15940,-81,164,-40
26053595,-2880,-148,15996,-112,37,-66
26056978,-2812,-180,15920,-54,126,-68
26060361,-2724,-184,15960,-114,112,-78
26063831,-2720,-240,15916,-77,69,-59
26067230,-2876,-236,15996,-98,176,-52
26070511,-2812,-296,15948,-100,72,-32
26073894,-2748,-176,15828,-95,194,-54
26077277,-2792,-204,16016,-90,55,-65
26080574,-2868,-260,15892,-89,196,-74
26083957,-2840,-192,15876,-108,52,-51
26087341,-2716,-216,15920,-60,162,-83
26090769,-2720,-260,15960,-107,79,-77
26094107,-2900,-220,15988,-61,125,-32
26097490,-2684,-220,15920,-134,86,-71
26100873,-2720,-232,15968,-78,80,-59
26104170,-2688,-192,16116,-132,149,-53
26107640,-2664,-196,16016,-97,57,-60
26110937,-2708,-264,15916,-74,171,-34
26114323,-2740,-244,16056,-93,48,-49
26117641,-2744,-208,15976,-86,156,-39
26121000,-2800,-196,16032,-90,59,-72
26124296,-2816,-228,16096,-79,169,-58
26127679,-2804,-248,15956,-106,103,-64
26131149,-2752,-228,16032,-68,127,-29
26134532,-2728,-308,16120,-115,151,-108
26138089,-2796,-256,15900,-86,87,-50
26141410,-2724,-136,15924,-93,198,-85
26144769,-2860,-168,15956,-79,52,-42
26148065,-2812,-180,15848,-123,173,-78
26151535,-2824,-220,15788,-114,66,-54
26154919,-2740,-188,15804,-74,155,-38
26158302,-2840,-212,15900,-108,79,-79
26161685,-2800,-184,15984,-82,128,-48
26165117,-2744,-196,15948,-106,76,-100
26168539,-2804,-204,16064,-75,85,-79
26171835,-2880,-312,15964,-130,139,-59
26175305,-2800,-180,16020,-100,54,-72
26178688,-2796,-244,15864,-116,189,-73
26182158,-2788,-244,16008,-89,47,-47
26185455,-2768,-212,16028,-80,188,-70
26188838,-2728,-260,16048,-81,52,-55
26192176,-2768,-184,15964,-84,164,-43
26195518,-2872,-180,15988,-95,83,-71
26198814,-2796,-268,15824,-71,143,-52
26202197,-2800,-260,16016,-113,114,-60
26205668,-2808,-288,16064,-53,111,-20
26209051,-2856,-204,15876,-87,177,-31
26212434,-2756,-256,15920,-92,53,-43
26215755,-2824,-320,15872,-110,159,-75
26219200,-2844,-248,15800,-82,66,-46
26222497,-2728,-120,15896,-97,152,-67
26225880,-2724,-272,15788,-108,69,-61
26229264,-2812,-312,16016,-74,157,-53
26232647,-2748,-224,15904,-109,67,-82
26236030,-2884,-232,16012,-72,93,-60
26239330,-2716,-168,16044,-130,112,-81
26242821,-2784,-204,16020,-91,76,-87
26246093,-2868,-168,15864,-89,148,-60
26249476,-2800,-208,16032,-84,43,-72
26252773,-2748,-224,16000,-61,158,-37
26256156,-2924,-144,16036,-86,84,-80
26259453,-2864,-176,16032,-60,179,-59
26262836,-2760,-164,15912,-118,87,-87
26266267,-2712,-280,15932,-48,133,-47
26269602,-2788,-220,15940,-123,79,-56
26272985,-2740,-128,15796,-82,68,-60
26276282,-2748,-196,16004,-119,150,-64
26279752,-2852,-216,15944,-115,59,-71
26283135,-2848,-268,15952,-82,199,-43
26286519,-2828,-220,15920,-116,24,-86
26289925,-2788,-224,15836,-60,161,-77
26293320,-2728,-324,15940,-111,57,-58
26296668,-2772,-260,16076,-72,110,-59
26300051,-2784,-184,16096,-116,98,-66
26303435,-2848,-100,16104,-61,108,-50
26306818,-2768,-268,15848,-117,180,-60
26310288,-2704,-176,15936,-63,60,-61
26313584,-2812,-224,16048,-89,204,-60
26316992,-2748,-188,15988,-93,60,-46
26320264,-2776,-216,16056,-76,208,-90
26323648,-2728,-272,15844,-109,56,-65
26327031,-2856,-228,16044,-73,171,-49
26330414,-2772,-168,16148,-123,83,-75
26333797,-2772,-188,15968,-41,143,-83
26337180,-2844,-164,16104,-134,66,-89
26340588,-2652,-252,15872,-63,74,-69
26343860,-2812,-256,15920,-114,112,-49
26347330,-2796,-240,16008,-109,52,-54
26350714,-2832,-104,15936,-100,173,-83
26354183,-2768,-128,15960,-89,44,-55
26357480,-2764,-200,15892,-66,190,-60
26360863,-2768,-224,15936,-102,37,-62
26364250,-2884,-128,16004,-54,131,-38
26367678,-2912,-232,16008,-98,60,-80
26370926,-2772,-204,16016,-77,156,-55
26374310,-2784,-256,15876,-108,111,-70
26377780,-2716,-212,15980,-50,93,-54
26381076,-2848,-188,15784,-122,98,-69
26384459,-2760,-196,15956,-62,79,-73
26387756,-2760,-216,15948,-99,159,-63
26391162,-2804,-268,16108,-82,44,-72
26394470,-2736,-236,15944,-78,204,-50
26397819,-2860,-160,15948,-95,71,-71
26401115,-2808,-184,15980,-81,120,-62
26404499,-2888,-180,15956,-130,83,-67
26407882,-2780,-216,15980,-62,137,-30
26411265,-2792,-304,15848,-128,113,-79
26414760,-2844,-252,15940,-73,83,-31
26418032,-2788,-188,15948,-106,208,-58
26421502,-2812,-200,16024,-88,68,-89
26424798,-2660,-176,15980,-112,186,-38
26428268,-2820,-248,15808,-99,51,-60
26431565,-2752,-200,15924,-76,174,-68
26434948,-2792,-148,15980,-115,75,-58
26438331,-2768,-160,16000,-52,140,-53
26441739,-2832,-240,15876,-106,97,-71
26445098,-2712,-200,15892,-63,71,-66
26448394,-2804,-224,15916,-118,120,-52
26451864,-2840,-204,16040,-82,64,-77
26455160,-2852,-172,16092,-104,170,-65
26458630,-2848,-160,16072,-83,77,-89
26461927,-2816,-144,15904,-63,196,-53
26465359,-2848,-196,15968,-108,36,-72
26468694,-2780,-108,16032,-74,168,-53
26472077,-2784,-184,16012,-98,86,-69
26475373,-2724,-228,15992,-50,141,-68
26478756,-2716,-240,15976,-103,118,-68
26482227,-2740,-236,15884,-56,101,-52
26485610,-2800,-112,16068,-125,121,-60
26489083,-2752,-232,15948,-95,56,-52
26492399,-2876,-220,16012,-118,145,-52
26495881,-2880,-236,16116,-91,29,-77
26499143,-2828,-92,15860,-87,197,-60
26502439,-2820,-244,15968,-76,25,-67
26505736,-2808,-192,16028,-74,169,-74
26509119,-2724,-256,16092,-95,56,-79
26512416,-2800,-120,15972,-86,177,-66
26515823,-2820,-240,15996,-125,76,-81
26519182,-2784,-236,16008,-57,124,-44
26522565,-2820,-176,15952,-127,119,-72
26526035,-2808,-220,15956,-66,77,-74
26529332,-2840,-220,15976,-127,118,-60
26532802,-2788,-260,15940,-83,74,-56
26536098,-2672,-244,16000,-111,173,-82
26539593,-2824,-192,16048,-104,60,-38
26542951,-2800,-272,15840,-66,182,-76
26546335,-2784,-212,15996,-88,107,-105
26549805,-2884,-164,15928,-90,121,-25
26553188,-2824,-172,16020,-111,65,-72
26556571,-2836,-260,15980,-83,84,-50
26559868,-2740,-168,16060,-108,105,-67
26563338,-2880,-280,16108,-90,61,-72
26566695,-2820,-292,16080,-104,175,-47
26570104,-2872,-240,15948,-83,65,-65
26573401,-2760,-188,16088,-49,185,-78
26576784,-2816,-280,15880,-76,56,-72
26580081,-2872,-208,15944,-121,187,-59
26583551,-2708,-220,15892,-112,73,-110
26587021,-2732,-280,16064,-84,162,-60
26590427,-2772,-212,15928,-113,79,-65
26593787,-2732,-84,15900,-67,141,-78
26597118,-2720,-292,15972,-133,122,-79
26600553,-2764,-256,16024,-80,126,-69
26603937,-2624,-296,16052,-136,105,-87
26607407,-2828,-244,15872,-90,37,-76
26610703,-2820,-248,15836,-100,178,-53
26614177,-2808,-220,15864,-96,41,-75
26617494,-2732,-280,15940,-79,183,-52
26620853,-2832,-184,15892,-108,45,-66
26624236,-2820,-176,15924,-71,150,-18
26627619,-2808,-216,15960,-108,46,-97
26631003,-2812,-260,15972,-60,78,-72
26634299,-2736,-276,15920,-146,125,-46
26637769,-2784,-104,16104,-51,96,-62
26641090,-2844,-212,16020,-115,155,-57
26644536,-2736,-140,15972,-97,68,-55
26647832,-2772,-256,16088,-91,183,-67
26651216,-2824,-240,15972,-77,58,-61
26654512,-2808,-180,16140,-124,183,-59
26657982,-2780,-324,15832,-114,77,-76
26661365,-2716,-216,16076,-69,173,-43
26664797,-2868,-192,15892,-113,92,-80
26668132,-2848,-256,15976,-68,119,-67
26671515,-2812,-240,16036,-112,80,-69
26674898,-2792,-272,16032,-54,71,-63
26678195,-2776,-152,16036,-119,148,-81
26681665,-2784,-184,15980,-82,77,-91
26684961,-2832,-280,15908,-98,176,-77
26688345,-2812,-208,15892,-80,34,-88
26691664,-2748,-164,16004,-56,172,-42
26695024,-2724,-208,16068,-106,55,-95
26698442,-2744,-324,15992,-64,155,-56
26701791,-2856,-136,15976,-97,120,-70
26705174,-2824,-208,15948,-72,114,-73
26708557,-2628,-200,15904,-98,172,-54
26711940,-2784,-200,15864,-98,64,-58
26715262,-2812,-128,16104,-118,175,-112
26718794,-2712,-276,15948,-66,41,-54
26722090,-2804,-212,15912,-70,160,-37
26725474,-2768,-168,16004,-98,81,-52
26728770,-2760,-288,15956,-60,151,-60
26732153,-2680,-288,16088,-122,73,-49
26735536,-2696,-164,15884,-83,90,-80
26738833,-2772,-216,15864,-112,132,-60
26742328,-2840,-172,16068,-70,108,-39
26745686,-2816,-168,16008,-117,189,-62
26749156,-2844,-212,16012,-93,72,-79
26752453,-2808,-208,15900,-71,160,-42
26755836,-2744,-152,16068,-96,59,-82
26759132,-2780,-168,15892,-77,185,-61
26762516,-2748,-216,16060,-135,75,-70
26765947,-2716,-176,15872,-58,128,-61
26769282,-2704,-152,15812,-123,153,-52
26772752,-2804,-168,16016,-73,128,-94
26776136,-2820,-304,15920,-120,111,-57
26779605,-2740,-184,15888,-85,72,-29
26782902,-2828,-116,15932,-89,181,-65
26786285,-2772,-188,15964,-89,59,-79
26789605,-2832,-188,16020,-78,171,-58
26792965,-2768,-180,15992,-84,68,-48
26796261,-2756,-220,15968,-79,145,-74
26799680,-2772,-212,15968,-105,57,-66
26803028,-2776,-196,16072,-75,157,-47
26806411,-2796,-188,16060,-110,139,-101
26809968,-2844,-176,15980,-59,124,-32
26813351,-2840,-184,16048,-122,129,-62
26816846,-2752,-268,15860,-80,87,-49
26820118,-2752,-332,15980,-82,185,-72
26823501,-2792,-220,15956,-80,76,-63
26826797,-2872,-316,15892,-87,181,-77
26830181,-2928,-216,15940,-117,64,-44
26833564,-2832,-212,16052,-63,173,-60
26836947,-2736,-136,15992,-116,112,-62
26840442,-2792,-184,15984,-68,114,-67
26843800,-2796,-184,15936,-113,99,-81
26847184,-2760,-236,15888,-65,89,-74
26850480,-2816,-236,16044,-106,115,-67
26853950,-2728,-192,15892,-98,80,-60
26857247,-2856,-204,15972,-114,194,-78
26860717,-2880,-120,15976,-79,46,-24
26864017,-2772,-172,15916,-71,171,-64
26867445,-2696,-152,15968,-81,47,-78
26870693,-2760,-172,16020,-95,182,-38
26874076,-2740,-180,15892,-87,64,-110
26877460,-2876,-160,15968,-62,203,-27
26880843,-2656,-248,15896,-113,106,-57
26884313,-2720,-188,15904,-75,133,-29
26887696,-2852,-360,15920,-145,163,-76
26891189,-2732,-252,16092,-68,65,-59
26894462,-2744,-164,15928,-134,168,-91
26897933,-2812,-196,15940,-89,94,-73
26901264,-2880,-196,15904,-85,180,-59
26904612,-2788,-176,15924,-119,83,-58
26907996,-2688,-276,15916,-74,159,-54
26911379,-2788,-280,16080,-112,69,-66
26914787,-2808,-168,15984,-76,70,-50
26918059,-2812,-156,16096,-115,116,-63
26921528,-2780,-244,16008,-74,76,-46
26924825,-2728,-244,16076,-112,130,-70
26928295,-2772,-232,16032,-42,93,-52
26931592,-2836,-284,15912,-93,192,-83
26934975,-2796,-192,15920,-87,31,-48
26938271,-2784,-80,16008,-118,171,-41
26941679,-2828,-252,15996,-104,71,-64
26945038,-2808,-228,16088,-61,198,-42
26948421,-2788,-216,16008,-111,83,-71
26951804,-2824,-272,15956,-68,142,-39
26955188,-2776,-192,15980,-123,102,-39
26958657,-2860,-188,15960,-68,74,-57
26961954,-2744,-236,16040,-114,115,-91
26965473,-2824,-276,15992,-109,56,-51
26968807,-2772,-204,15860,-109,186,-69
26972277,-2772,-196,15932,-87,64,-74
26975574,-2728,-220,15996,-67,147,-55
26978957,-2856,-292,15880,-86,68,-79
26982254,-2824,-280,15924,-81,103,-69
26985637,-2772,-268,15864,-126,90,-27
26989024,-2852,-172,15952,-66,118,-64
26992426,-2784,-284,15996,-106,137,-61
26995873,-2800,-284,15980,-76,82,-91
26999170,-2784,-252,15984,-80,180,-59
27002588,-2780,-140,16004,-90,57,-94
27005850,-2708,-220,15900,-122,183,-49
27009320,-2868,-316,15912,-85,65,-70
27012616,-2800,-212,16000,-91,168,-59
27016024,-2788,-268,15820,-96,70,-72
27019296,-2708,-116,16072,-68,138,-53
27022679,-2808,-212,15816,-101,72,-67
27026062,-2760,-216,15880,-93,101,-63
27029446,-2760,-180,15836,-114,87,-64
27032829,-2840,-200,15808,-71,121,-59
27036212,-2640,-212,16052,-125,179,-103
27039793,-2740,-316,15996,-67,92,-48
27043065,-2720,-204,15860,-97,187,-73
27046449,-2736,-148,15960,-81,51,-56
27049745,-2720,-108,15960,-108,176,-67
27053215,-2824,-196,15884,-108,76,-43
27056598,-2744,-256,16032,-59,178,-78
27059982,-2864,-200,15988,-121,82,-62
27063365,-2724,-288,15844,-48,121,-47
27066850,-2760,-224,15800,-132,124,-82
27070218,-2664,-200,15876,-86,79,-65
27073514,-2768,-284,15884,-93,156,-92
27076898,-2788,-224,15904,-107,66,-87
27080281,-2684,-248,15964,-88,184,-41
27083664,-2804,-192,16068,-87,60,-54
27086961,-2728,-244,15892,-59,157,-68
27090367,-2796,-264,15960,-100,71,-87
27093727,-2736,-120,15872,-56,133,-70
27097110,-2748,-196,15924,-111,69,-51
27100494,-2796,-176,15972,-55,124,-49
27103916,-2792,-164,15932,-117,135,-85
27107347,-2844,-192,15924,-76,102,-52
27110730,-2744,-200,15988,-103,165,-53
27114204,-2872,-296,15932,-81,51,-84
27117521,-2824,-200,15864,-106,189,-70
27120967,-2796,-216,16004,-104,41,-70
27124350,-2688,-212,15816,-76,166,-45
27127733,-2804,-192,15924,-114,92,-31
27131117,-2792,-252,15728,-85,106,-47
27134500,-2796,-136,15836,-126,148,-67
27137970,-2856,-184,15960,-84,81,-75
27141291,-2696,-296,15920,-121,136,-58
27144736,-2704,-156,15992,-102,70,-64
27148119,-2836,-168,15916,-102,183,-63
27151590,-2756,-304,16072,-101,73,-70
27154973,-2812,-180,15740,-51,170,-51
27158356,-2876,-256,15884,-117,54,-78
27161739,-2816,-204,16028,-89,137,-45
27165171,-2776,-216,15988,-111,102,-84
27168592,-2816,-208,16096,-69,50,-67
27171889,-2768,-248,15988,-106,179,-81
27175359,-2780,-88,16080,-82,58,-35
27178569,-2800,-268,15992,-86,176,-79
27181952,-2716,-292,15956,-85,40,-55
27185249,-2824,-196,16040,-74,132,-42
27188632,-2852,-172,16008,-106,95,-86
27192038,-2740,-212,15836,-65,114,-61
27195398,-2708,-196,16144,-102,166,-67
27198868,-2916,-212,16024,-62,62,-35
27202165,-2852,-208,16080,-92,184,-64
27205583,-2736,-136,15928,-94,43,-58
27208844,-2780,-176,15908,-91,211,-68
27212228,-2732,-172,16044,-103,74,-49
27215636,-2700,-280,16036,-79,175,-46
27218994,-2792,-240,16000,-96,56,-80
27222291,-2772,-240,16000,-81,128,-41
27225674,-2728,-248,15944,-128,112,-82
27229144,-2768,-192,15972,-72,76,-50
27232440,-2760,-200,16064,-113,153,-80
27235911,-2832,-356,15920,-82,70,-71
27239210,-2684,-204,15956,-85,165,-56
27242615,-2704,-188,16060,-93,79,-64
27245887,-2812,-200,15928,-69,154,-74
27249270,-2792,-268,15796,-102,73,-63
27252653,-2720,-124,15820,-74,168,-24
27256037,-2744,-184,15936,-117,126,-78
27259506,-2796,-260,16124,-65,124,-64
27262890,-2872,-176,15940,-109,167,-76
27266408,-2748,-176,15956,-91,72,-72
27269656,-2672,-196,15936,-99,156,-68
27273040,-2868,-184,15860,-100,53,-74
27276423,-2760,-196,15924,-101,194,-54
27279893,-2732,-276,15880,-112,61,-74
27283276,-2804,-256,15828,-59,148,-75
27286659,-2796,-236,15996,-130,70,-62
27290077,-2908,-164,15948,-74,73,-68
27293344,-2780,-224,15844,-138,136,-57
27296809,-2800,-212,15936,-94,38,-55
27300106,-2772,-200,15932,-100,193,-53
27303575,-2796,-272,15984,-97,56,-64
27306907,-2752,-272,16020,-69,197,-39
27310255,-2796,-276,15904,-89,59,-78
27313552,-2880,-304,15972,-64,177,-45
27316959,-2724,-176,15712,-111,80,-69
27320318,-2740,-284,15988,-43,138,-71
27323701,-2804,-208,15960,-113,153,-54
27327172,-2796,-232,16064,-82,100,-55
27330555,-2764,-236,15988,-92,181,-59
27333938,-2860,-204,15892,-80,54,-60
27337235,-2784,-232,15936,-101,200,-58
27340729,-2856,-128,16012,-98,76,-82
27344001,-2808,-276,16024,-64,181,-56
27347384,-2788,-312,15924,-87,55,-57
27350681,-2752,-136,16072,-63,135,-41
27354064,-2748,-244,15692,-101,39,-87
27357447,-2736,-108,15864,-77,88,-64
27360744,-2872,-192,15968,-132,112,-71
27364217,-2868,-284,15916,-62,135,-68
27367645,-2764,-196,15876,-140,167,-49
27371067,-2768,-196,15916,-79,52,-52
27374364,-2776,-268,16044,-80,167,-38
27377747,-2860,-220,15840,-100,61,-65
27381130,-2736,-172,15944,-80,196,-39
27384513,-2768,-268,15936,-105,63,-90
27387896,-2804,-252,16076,-61,169,-28
27391303,-2732,-200,15972,-119,122,-56
27394750,-2796,-176,16016,-58,122,-46
27398133,-2652,-180,15948,-139,106,-74
27401603,-2856,-224,15796,-92,57,-52
27404899,-2780,-184,15936,-99,152,-57
27408318,-2728,-232,15892,-106,59,-60
27411666,-2836,-136,16000,-79,159,-31
27415074,-2700,-196,15956,-81,27,-89
27418346,-2800,-208,15900,-58,128,-43
27421729,-2900,-256,16036,-109,83,-84
27425112,-2936,-176,16008,-64,87,-48
27428409,-2592,-252,16080,-127,118,-35
27431879,-2752,-244,15764,-52,103,-51
27435262,-2788,-184,15944,-100,180,-82
27438732,-2752,-228,15992,-88,60,-67
27442053,-2756,-136,15852,-85,180,-81
27445412,-2748,-260,16048,-115,35,-50
27448795,-2788,-268,16004,-75,191,-59
27452178,-2772,-244,15904,-124,86,-58
27455562,-2812,-224,15952,-49,108,-56
27458945,-2792,-280,15964,-106,154,-72
27462415,-2788,-284,15824,-83,89,-50
27465760,-2796,-280,16052,-97,118,-82
27469094,-2928,-264,15948,-80,64,-51
27472391,-2728,-124,15968,-128,149,-48
27475861,-2868,-132,15980,-86,59,-75
27479158,-2788,-296,15952,-74,189,-58
27482541,-2728,-212,15988,-84,59,-80
27485837,-2804,-236,16004,-76,127,-50
27489224,-2736,-192,15964,-96,64,-53
27492540,-2892,-168,15900,-52,145,-70
27495900,-2740,-200,15964,-123,134,-61
27499370,-2728,-252,15784,-86,84,-34
27502667,-2868,-180,15912,-133,118,-71
27506137,-2896,-120,15808,-85,51,-62
27509468,-2808,-172,15972,-124,189,-82
27512903,-2784,-276,15768,-79,88,-91
27516224,-2912,-208,15920,-104,168,-67
27519670,-2708,-184,15924,-97,70,-81
27522966,-2800,-244,15960,-63,157,-49
27526349,-2796,-212,16048,-125,57,-64
27529733,-2744,-136,15936,-64,102,-59
27533116,-2700,-204,16140,-118,106,-54
27536586,-2712,-216,15952,-81,66,-41
27539907,-2784,-328,15984,-109,160,-89
27543353,-2660,-204,15988,-72,80,-65
27546649,-2848,-140,16056,-96,196,-44
27550032,-2832,-68,15772,-102,65,-55
27553329,-2812,-144,15964,-94,179,-70
27556712,-2892,-236,15948,-98,44,-48
27560009,-2752,-160,15996,-91,177,-45
27563392,-2808,-312,15988,-112,54,-94
27566836,-2772,-220,15884,-48,136,-23
27570158,-2812,-188,16004,-123,122,-68
27573628,-2756,-176,15940,-71,80,-50
27576925,-2888,-188,15996,-96,128,-65
27580308,-2828,-220,16020,-89,100,-42
27583691,-2816,-220,15908,-125,194,-61
27587161,-2720,-188,15880,-82,57,-38
27590481,-2784,-196,15932,-80,162,-57
27593841,-2776,-228,15980,-94,80,-53
27597138,-2804,-236,16096,-82,162,-70
27600521,-2824,-328,15860,-150,93,-85
27603904,-2708,-248,16044,-36,136,-65
27607287,-2784,-264,15860,-123,136,-71
27610792,-2816,-144,16004,-75,91,-46
27614057,-2848,-116,15992,-126,124,-53
27617548,-2756,-232,15932,-97,46,-77
27620820,-2816,-156,15860,-111,162,-58
27624290,-2876,-232,16040,-102,64,-52
27627673,-2756,-272,15836,-72,180,-58
27631057,-2868,-204,16004,-91,43,-42
27634353,-2788,-244,15928,-59,151,-61
27637737,-2792,-244,15972,-98,56,-47
27641058,-2880,-164,15964,-71,104,-51
27644416,-2812,-252,16016,-109,114,-67
27647886,-2848,-268,16076,-91,105,-41
27651270,-2792,-200,15796,-122,133,-47
27654740,-2780,-256,15972,-65,79,-69
27658036,-2884,-220,15888,-87,178,-46
27661419,-2832,-240,15916,-101,61,-56
27664851,-2728,-276,15776,-109,174,-33
27668272,-2820,-208,16100,-90,69,-73
27671569,-2764,-256,15916,-70,168,-31
27674952,-2696,-236,15944,-105,85,-80
27678335,-2716,-216,15960,-65,125,-58
27681719,-2804,-248,15980,-124,97,-65
27685102,-2808,-164,15972,-66,80,-47
27688399,-2696,-244,16008,-115,130,-95
27691892,-2808,-228,15956,-115,61,-84
27695252,-2736,-264,16032,-60,167,-47
27698635,-2836,-200,15992,-109,50,-59
27702018,-2684,-244,15912,-38,140,-47
27705402,-2920,-136,15892,-112,62,-44
27708785,-2864,-252,15956,-61,113,-89
27712203,-2808,-240,16068,-113,112,-43
27715663,-2760,-216,16092,-84,113,-60
27719021,-2800,-220,15980,-90,178,-79
27722405,-2764,-280,16072,-97,53,-59
27725701,-2820,-212,15828,-77,178,-44
27729084,-2820,-144,16036,-109,76,-76
27732467,-2792,-336,16052,-66,163,-30
27735851,-2828,-208,15944,-129,75,-64
27739238,-2768,-256,15812,-57,152,-70
27742642,-2808,-220,16000,-118,111,-79
27746087,-2772,-256,15976,-74,79,-36
27749384,-2820,-284,16080,-107,128,-61
27752854,-2816,-220,15816,-94,51,-71
27756150,-2812,-240,15896,-94,176,-66
27759534,-2832,-244,15872,-99,53,-92
27762830,-2816,-216,15764,-103,185,-71
27766348,-2824,-188,15840,-78,43,-53
27769597,-2740,-220,15916,-59,177,-41
27772980,-2764,-284,16024,-97,34,-69
27776276,-2832,-136,15912,-61,181,-48
27779659,-2796,-244,15912,-105,120,-52
27783129,-2768,-248,15956,-84,136,-50
27786513,-2836,-212,15916,-87,153,-87
27789919,-2824,-260,16048,-72,66,-66
27793193,-2820,-148,15932,-124,133,-60
27796662,-2812,-172,15852,-121,73,-74
27800046,-2892,-164,16000,-95,187,-61
27803429,-2672,-216,15936,-93,56,-48
27806725,-2796,-228,16028,-61,168,-38
27810109,-2752,-192,16000,-112,48,-48
27813527,-2880,-264,15900,-51,136,-58
27816900,-2792,-268,15924,-109,73,-76
27820259,-2788,-232,15960,-82,84,-80
27823555,-2780,-244,15956,-132,113,-44
27827025,-2760,-180,15980,-74,109,-47
27830408,-2856,-172,16024,-117,164,-53
27833878,-2844,-216,15976,-72,65,-75
27837175,-2848,-216,15896,-69,183,-72
27840582,-2840,-216,16152,-101,68,-47
27843941,-2788,-212,15904,-78,176,-30
27847324,-2804,-252,15800,-131,68,-49
27850708,-2784,-208,15928,-84,116,-63
27854091,-2804,-260,15916,-128,168,-84
27857561,-2792,-200,15964,-72,67,-77
27860857,-2832,-112,16012,-103,121,-73
27864376,-2752,-132,16016,-90,91,-83
27867624,-2732,-68,16084,-86,179,-71
27870921,-2764,-144,15976,-95,83,-71
27874217,-2804,-176,16108,-58,167,-47
27877600,-2768,-200,15960,-119,77,-88
27880984,-2784,-216,16100,-54,120,-65
27884367,-2780,-248,15940,-107,109,-75
27887837,-2824,-276,16056,-67,105,-45
27891243,-2772,-148,15940,-127,154,-91
27894690,-2708,-200,15980,-85,87,-43
27897986,-2836,-256,16056,-75,196,-54
27901370,-2736,-200,15892,-69,45,-56
27904666,-2764,-180,15972,-114,184,-81
27908136,-2696,-180,15924,-90,65,-72
27911433,-2768,-228,16040,-70,184,-54
27914859,-2764,-220,15968,-135,66,-59
27918199,-2624,-220,16076,-52,172,-62
27921582,-2860,-244,16008,-114,90,-63
27924966,-2748,-88,16056,-64,114,-68
27928262,-2840,-156,16096,-129,104,-80
27931732,-2904,-236,15844,-85,52,-82
27935029,-2716,-144,16012,-128,160,-62
27938499,-2772,-220,15880,-75,69,-55
27941820,-2788,-228,15964,-78,165,-84
27945179,-2876,-216,15880,-72,42,-73
27948475,-2728,-220,15876,-69,207,-84
27951858,-2692,-188,15988,-116,59,-61
27955242,-2772,-204,15916,-53,146,-53
27958625,-2812,-184,16052,-114,118,-65
27962095,-2824,-148,16064,-88,103,-71
27965527,-2852,-236,16024,-124,95,-70
27968861,-2780,-184,15932,-96,77,-62
27972158,-2732,-208,15956,-81,135,-67
27975541,-2780,-192,15880,-119,65,-61
27978924,-2876,-140,15856,-95,167,-59
27982308,-2828,-100,15892,-115,57,-65
27985691,-2860,-160,15888,-48,164,-54
27989077,-2832,-232,15948,-98,64,-86
27992395,-2828,-184,15876,-84,191,-43
27995754,-2760,-100,15932,-127,69,-97
27999137,-2760,-164,16044,-71,121,-59
28002520,-2760,-204,15936,-134,149,-67
28005990,-2664,-276,15864,-66,109,-53
28009373,-2836,-132,15972,-93,174,-89
28012757,-2672,-208,16036,-87,51,-64
28016095,-2760,-192,15972,-112,191,-65
28019523,-2740,-252,15896,-89,69,-58
28022820,-2776,-148,15976,-62,133,-53
28026203,-2808,-228,15864,-97,68,-84
28029499,-2708,-244,15996,-77,101,-56
28032883,-2832,-260,15976,-122,134,-51
28036353,-2792,-244,15936,-95,67,-86
28039674,-2768,-116,15960,-86,185,-41
28043033,-2848,-168,16000,-96,58,-79
28046329,-2748,-192,15860,-72,123,-37
28049712,-2840,-288,15884,-87,56,-83
28053009,-2728,-236,15956,-71,196,-51
28056392,-2824,-260,15936,-120,94,-60
28059775,-2808,-276,15916,-73,133,-67
28063158,-2756,-256,15884,-115,167,-89
28066731,-2824,-176,16120,-101,70,-60
28070012,-2788,-240,15904,-131,136,-42
28073482,-2816,-224,15916,-85,55,-59
28076778,-2756,-248,15956,-91,166,-47
28080162,-2872,-196,15928,-108,70,-60
28083545,-2780,-188,15968,-54,129,-72
28086928,-2776,-224,15992,-96,71,-63
28090249,-2744,-324,16080,-73,98,-91
28093521,-2856,-220,15968,-118,91,-63
28096904,-2828,-80,16024,-75,137,-55
28100201,-2768,-188,15944,-110,116,-83
28103671,-2812,-188,15920,-75,92,-76
28106967,-2876,-144,16080,-90,163,-75
28110351,-2852,-156,15860,-90,69,-69
28113647,-2832,-180,15948,-95,182,-65
28117076,-2760,-252,15980,-92,53,-55
28120327,-2780,-212,15884,-83,160,-35
28123710,-2728,-156,16080,-102,55,-90
28127093,-2792,-232,15996,-56,130,-35
28130477,-2748,-204,15872,-145,68,-84
28133860,-2700,-300,15984,-62,117,-68
28137243,-2700,-176,15888,-139,93,-64
28140651,-2760,-228,15864,-60,117,-57
28144009,-2792,-200,15816,-112,159,-84
28147479,-2772,-252,16000,-88,88,-55
28150776,-2776,-168,15968,-88,180,-59
28154159,-2756,-208,15936,-106,48,-37
28157542,-2844,-196,15964,-122,177,-77
28161012,-2800,-268,15960,-86,66,-65
28164357,-2836,-156,15844,-83,167,-57
28167692,-2744,-176,16044,-110,120,-69
28171162,-2804,-272,15968,-64,103,-61
28174546,-2872,-160,15968,-127,97,-83
28177929,-2788,-260,15864,-95,57,-64
28181225,-2736,-204,16016,-124,161,-67
28184695,-2768,-288,16044,-89,42,-83
28187992,-2800,-268,15984,-97,194,-68
28191400,-2788,-140,16016,-87,45,-61
28194672,-2836,-196,15984,-60,159,-57
28198055,-2784,-192,16156,-73,62,-65
28201351,-2800,-208,15988,-93,179,-65
28204735,-2820,-296,15936,-117,85,-72
28208118,-2908,-156,16036,-58,139,-52
28211501,-2892,-196,16112,-117,129,-66
28214994,-2856,-276,15964,-67,76,-60
28218303,-2772,-268,15988,-105,133,-74
28221738,-2768,-316,15864,-120,79,-61
28225121,-2804,-192,15948,-90,160,-61
28228504,-2760,-240,16044,-99,62,-81
28231800,-2716,-164,16120,-58,177,-48
28235184,-2740,-200,15992,-87,60,-62
28238480,-2828,-276,15972,-71,142,-61
28241888,-2716,-184,15996,-108,58,-72
28245247,-2820,-164,16052,-70,103,-61
28248630,-2696,-176,15916,-117,100,-82
28252100,-2740,-204,16012,-65,94,-44
28255396,-2724,-224,16012,-139,145,-78
28258866,-2776,-264,16024,-82,68,-47
28262163,-2928,-276,15996,-104,204,-52
28265681,-2752,-192,15960,-92,58,-62
28268930,-2708,-136,15872,-99,183,-57
28272313,-2904,-292,15956,-103,50,-67
28275696,-2692,-280,16084,-65,152,-67
28279079,-2836,-240,16080,-114,66,-54
28282463,-2768,-148,15920,-58,144,-66
28285846,-2832,-236,16012,-111,62,-56
28289233,-2788,-276,15920,-65,95,-18
28292550,-2716,-280,15936,-119,108,-71
28295995,-2880,-148,15884,-94,62,-58
28299292,-2796,-112,16140,-93,155,-65
28302675,-2704,-176,15936,-101,49,-65
28306059,-2856,-276,15896,-80,175,-73
28309442,-2736,-184,15980,-104,56,-41
28312825,-2656,-272,15992,-80,187,-80
28316231,-2892,-176,16020,-96,73,-78
28319540,-2704,-164,15860,-68,130,-43
28322888,-2920,-284,15904,-126,128,-70
28326358,-2716,-316,15848,-84,89,-63
28329655,-2780,-224,16000,-121,110,-78
28333125,-2836,-240,15964,-103,45,-45
28336508,-2776,-280,15972,-103,179,-45
28340002,-2716,-256,16088,-97,30,-87
28343274,-2812,-248,16032,-77,184,-63
28346657,-2752,-276,16016,-75,49,-59
28349954,-2924,-272,16060,-63,162,-7
28353251,-2820,-280,15872,-86,70,-41
28356547,-2836,-136,15992,-55,151,-57
28359930,-2768,-188,16064,-112,117,-60
28363400,-2776,-252,15964,-64,126,-84
28366832,-2792,-300,15936,-102,150,-49
28370253,-2704,-144,15856,-91,70,-73
28373550,-2908,-184,16028,-130,138,-57
28377020,-2816,-184,15848,-93,67,-79
28380316,-2820,-256,15980,-107,179,-45
28383787,-2856,-200,16052,-83,74,-81
28387083,-2824,-228,15944,-47,170,-41
28390491,-2808,-200,15832,-109,42,-62
28393850,-2760,-220,16076,-106,89,-67
28397233,-2748,-216,16024,-116,122,-56
28400703,-2816,-240,15932,-88,65,-73
28403999,-2716,-120,15892,-93,181,-57
28407383,-2764,-184,15904,-91,42,-64
28410679,-2788,-348,16040,-78,155,-35
28414066,-2800,-176,15952,-103,29,-87
28417469,-2744,-212,16056,-69,124,-46
28420864,-2828,-192,16064,-118,78,-55
28424212,-2780,-160,15924,-50,128,-70
28427595,-2764,-208,15928,-98,136,-79
28430978,-2836,-164,15976,-84,90,-61
28434275,-2836,-116,15956,-114,138,-72
28437745,-2688,-192,15984,-64,77,-75
28441066,-2764,-328,16028,-98,193,-46
28444425,-2788,-212,16000,-101,68,-68
28447808,-2732,-276,15840,-59,142,-63
28451191,-2868,-308,16048,-96,55,-21
28454488,-2884,-248,15920,-75,99,-38
28457784,-2824,-240,15988,-105,121,-75
28461254,-2716,-128,15932,-73,71,-68
28464599,-2900,-272,15932,-99,128,-66
28467934,-2848,-152,16004,-86,74,-80
28471230,-2792,-232,15984,-106,174,-55
28474701,-2816,-200,15948,-91,79,-46
28477997,-2772,-316,15924,-109,176,-52
28481467,-2816,-180,16008,-82,23,-45
28484763,-2820,-284,15992,-90,190,-71
28488147,-2748,-256,16020,-106,58,-82
28491555,-2760,-272,15904,-89,145,-48
28494913,-2716,-296,16020,-103,83,-53
28498297,-2932,-176,15936,-76,124,-42
28501680,-2892,-216,15824,-122,103,-59
28505150,-2796,-208,15988,-80,41,-61
28508446,-2740,-260,16012,-91,163,-57
28511830,-2880,-236,16036,-98,86,-59
28515149,-2764,-232,16020,-59,190,-55
28518509,-2828,-200,15956,-93,45,-49
28521841,-2800,-208,16036,-86,171,-29
28525189,-2836,-148,16076,-123,56,-59
28528572,-2808,-276,15968,-68,151,-72
28531956,-2776,-220,15988,-137,133,-82
28535425,-2844,-164,15968,-49,105,-73
28538812,-2664,-204,15888,-127,139,-60
28542303,-2740,-288,15956,-108,49,-50
28545662,-2736,-160,15892,-116,185,-78
28549132,-2784,-216,16016,-96,73,-49
28552429,-2708,-152,15852,-70,149,-64
28555812,-2736,-248,15888,-116,146,-86
28559282,-2792,-156,16100,-74,84,-24
28562578,-2880,-256,15972,-128,98,-70
28566022,-2724,-204,15984,-76,53,-44
28569258,-2832,-220,16052,-104,181,-59
28572728,-2792,-304,15940,-99,74,-69
28576024,-2836,-256,15960,-66,155,-72
28579408,-2732,-160,15868,-97,57,-79
28582704,-2692,-288,15976,-54,103,-69
28586087,-2784,-252,16040,-108,91,-75
28589495,-2844,-184,16068,-68,106,-67
28592854,-2776,-256,15952,-136,174,-63
28596324,-2776,-120,15928,-71,80,-69
28599620,-2868,-156,15848,-90,169,-53
28603004,-2780,-280,15900,-71,55,-54
28606300,-2856,-184,16084,-75,180,-41
28609684,-2844,-388,15944,-121,76,-81
28613067,-2668,-196,16056,-71,122,-40
28616473,-2856,-196,15916,-102,63,-85
28619833,-2888,-252,16208,-68,100,-27
28623251,-2832,-244,15904,-128,122,-81
28626687,-2832,-104,16056,-62,61,-83
28629983,-2816,-248,16068,-124,154,-76
28633453,-2868,-180,16024,-81,64,-47
28636750,-2876,-200,15976,-103,181,-24
28640244,-2792,-244,15988,-74,51,-49
28643516,-2772,-220,15900,-86,168,-24
28646899,-2712,-96,16032,-100,45,-72
28650196,-2808,-164,15916,-81,190,-82
28653579,-2768,-184,15956,-121,66,-60
28656962,-2732,-244,15964,-52,155,-56
28660346,-2812,-292,15952,-117,99,-55
28663729,-2780,-268,15956,-53,129,-50
28667160,-2808,-196,16056,-89,103,-87
28670495,-2788,-216,15924,-87,93,-76
28673792,-2828,-204,16028,-116,157,-66
28677262,-2852,-248,15764,-80,69,-62
28680558,-2784,-204,15940,-122,161,-27
28684028,-2776,-212,15912,-63,58,-58
28687325,-2712,-248,15980,-83,158,-28
28690733,-2812,-192,15920,-125,56,-84
28694091,-2848,-316,16092,-87,180,-59
28697475,-2840,-292,16024,-111,64,-53
28700858,-2756,-184,15944,-41,153,-56
28704241,-2816,-176,16092,-108,90,-72
28707624,-2740,-204,15940,-65,138,-57
28711007,-2888,-216,15852,-117,77,-63
28714414,-2784,-192,15948,-80,55,-51
28717687,-2716,-172,15952,-120,135,-84
28721157,-2780,-240,15816,-99,35,-56
28724489,-2908,-252,16052,-101,170,-64
28727924,-2792,-176,16064,-89,54,-40
28731220,-2864,-252,16000,-61,166,-60
28734604,-2652,-224,15972,-104,79,-82
28737987,-2792,-240,16072,-78,153,-51
28741395,-2880,-132,15968,-97,91,-52
28744666,-2748,-188,15924,-60,175,-44
28748050,-2732,-156,15892,-115,116,-70
28751520,-2852,-172,15904,-85,119,-60
28754903,-2748,-292,15948,-109,167,-40
28758373,-2824,-212,15948,-93,71,-81
28761669,-2844,-232,15860,-113,150,-62
28765188,-2792,-296,15988,-103,72,-59
28768523,-2812,-312,15972,-104,163,-65
28771993,-2740,-200,16148,-93,58,-74
28775289,-2788,-256,15972,-58,171,-37
28778673,-2724,-248,15948,-90,61,-71
28781969,-2824,-244,16040,-56,141,-55
28785352,-2728,-148,15992,-113,65,-81
28788735,-2780,-220,16116,-76,69,-53
28792056,-2848,-200,16024,-103,130,-69
28795502,-2680,-184,16040,-66,75,-38
28798799,-2772,-300,15888,-111,177,-55
28802269,-2820,-184,15956,-97,66,-86
28805565,-2832,-192,15948,-99,170,-67
28808948,-2764,-196,15900,-110,40,-90
28812331,-2784,-264,15892,-91,184,-52
28815738,-2804,-204,16056,-120,78,-61
28819098,-2876,-296,16012,-74,159,-67
28822481,-2824,-220,15848,-103,82,-63
28825899,-2856,-236,15956,-53,108,-70
28829248,-2800,-272,16000,-120,90,-111
28832718,-2796,-248,15892,-87,62,-90
28836014,-2816,-220,16000,-113,160,-51
28839509,-2824,-288,15996,-110,64,-35
28842868,-2852,-164,16052,-90,159,-59
28846251,-2756,-312,15832,-88,45,-67
28849547,-2700,-220,16068,-74,177,-71
28852931,-2788,-136,15876,-97,62,-74
28856227,-2796,-224,15872,-94,169,-46
28859610,-2792,-300,15992,-128,93,-64
28862994,-2812,-220,16032,-62,100,-70
28866425,-2836,-188,15996,-110,135,-55
28869847,-2764,-216,15916,-63,58,-56
28873143,-2760,-244,15968,-134,152,-87
28876613,-2804,-240,15904,-104,50,-65
28879997,-2836,-164,15948,-83,167,-70
28883380,-2776,-192,15968,-107,86,-63
28886763,-2876,-168,16068,-59,134,-50
28890182,-2724,-148,16064,-106,61,-77
28893534,-2800,-340,15924,-57,120,-71
28896913,-2748,-228,15996,-125,102,-79
28900383,-2800,-236,15896,-97,67,-31
28903679,-2876,-120,15876,-117,134,-67
28907149,-2832,-192,15928,-103,51,-55
28910533,-2912,-152,16000,-80,165,-64
28913919,-2900,-208,15980,-99,45,-59
28917235,-2868,-204,15948,-63,147,-50
28920596,-2812,-336,16008,-111,57,-84
28923979,-2780,-196,16144,-74,147,-35
28927397,-2832,-244,15816,-116,96,-39
28930745,-2868,-232,15976,-57,137,-54
28934128,-2736,-200,16080,-107,148,-82
28937599,-2868,-124,16056,-75,96,-47
28940920,-2684,-204,16200,-120,114,-84
28944365,-2796,-180,15980,-107,85,-80
28947748,-2868,-144,16004,-94,170,-51
28951132,-2856,-240,16052,-98,50,-62
28954428,-2716,-360,15948,-89,156,-72
28957811,-2848,-248,15880,-97,60,-72
28961108,-2652,-188,15936,-52,146,-62
28964540,-2844,-296,15968,-115,75,-83
28967874,-2688,-260,15916,-47,92,-72
28971171,-2780,-280,15968,-129,115,-58
28974641,-2804,-216,15968,-78,112,-63
28978024,-2840,-240,15968,-111,181,-29
28981494,-2748,-184,15964,-76,69,-62
28984790,-2744,-288,16004,-68,173,-85
28988174,-2736,-228,15928,-88,55,-30
28991495,-2784,-224,15892,-58,166,-85
28994854,-2804,-136,15996,-142,93,-63
28998237,-2852,-148,15880,-65,135,-67
29001620,-2804,-168,16008,-112,89,-51
29005003,-2880,-312,16012,-63,82,-66
29008300,-2776,-172,15764,-134,137,-81
29011770,-2696,-316,15844,-114,60,-57
29015176,-2880,-208,16072,-110,145,-72
29018623,-2848,-144,15920,-72,74,-84
29021919,-2732,-344,16108,-79,175,-62
29025303,-2824,-276,15988,-78,39,-76
29028634,-2728,-184,15948,-55,117,-56
29031982,-2836,-200,15960,-126,81,-61
29035366,-2864,-188,15900,-57,132,-51
29038752,-2768,-180,15996,-124,148,-58
29042244,-2804,-384,15860,-66,77,-75
29045516,-2760,-172,15972,-80,186,-76
29048899,-2772,-184,15800,-93,38,-52
29052195,-2824,-188,15988,-90,194,-47
29055579,-2880,-312,16056,-140,64,-105
29059048,-2804,-284,15996,-48,138,-36
29062432,-2744,-184,16008,-110,117,-71
29066004,-2792,-120,15764,-51,95,-71
29069198,-2856,-212,15884,-118,100,-60
29072668,-2792,-144,15980,-71,52,-57
29075965,-2796,-216,15968,-117,163,-59
29079435,-2772,-136,15964,-96,45,-79
29082731,-2728,-172,15968,-95,190,-45
29086114,-2772,-240,15916,-77,65,-57
29089436,-2820,-188,15892,-63,175,-65
29092794,-2812,-220,16088,-82,58,-70
29096091,-2832,-160,15844,-77,200,-37
29099474,-2728,-180,16084,-107,81,-77
29102857,-2760,-252,15892,-62,133,-61
29106241,-2752,-160,15840,-129,178,-74
29109711,-2864,-244,16072,-89,89,-37
29113007,-2776,-216,15948,-102,137,-39
29116500,-2860,-212,15880,-114,48,-43
29119860,-2688,-288,16000,-85,201,-55
29123244,-2804,-220,16024,-106,59,-82
29126627,-2788,-224,15980,-92,182,-30
29130049,-2712,-152,15840,-106,47,-77
29133393,-2868,-196,16068,-68,147,-30
29136777,-2776,-188,15916,-101,77,-74
29140184,-2776,-128,15880,-61,95,-46
29143456,-2808,-228,15996,-113,102,-71
29146926,-2816,-140,15908,-79,149,-63
29150310,-2772,-300,15796,-94,164,-78
29153693,-2868,-228,15884,-84,80,-77
29156989,-2828,-204,16024,-87,189,-42
29160373,-2784,-164,16012,-110,39,-83
29163759,-2832,-164,16000,-96,187,-55
29167187,-2804,-180,15988,-110,72,-56
29170522,-2788,-264,15940,-73,144,-40
29173906,-2848,-168,15848,-112,114,-66
29177375,-2772,-84,16068,-69,115,-48
29180672,-2716,-172,16012,-123,119,-84
29184142,-2828,-204,16056,-108,61,-59
29187525,-2632,-224,16124,-119,153,-45
29191020,-2740,-216,15824,-101,60,-67
29194379,-2760,-188,15972,-89,195,-41
29197762,-2872,-268,16016,-97,61,-87
29201058,-2844,-104,16052,-59,145,-44
29204442,-2840,-172,15972,-106,92,-45
29207825,-2764,-252,15840,-82,70,-63
29211121,-2756,-208,15952,-119,128,-58
29214615,-2664,-220,15816,-64,81,-49
29217888,-2836,-108,15984,-95,166,-55
29221271,-2860,-248,15940,-94,89,-69
29224568,-2696,-204,15808,-120,132,-49
29228037,-2748,-132,15816,-81,67,-62
29231369,-2772,-172,16072,-88,172,-78
29234717,-2864,-276,15992,-107,61,-71
29238101,-2772,-196,15916,-85,158,-37
29241508,-2680,-272,15900,-93,69,-66
29244780,-2880,-168,15996,-78,122,-46
29248164,-2812,-208,15924,-118,97,-54
29251547,-2776,-252,15972,-81,67,-59
29254843,-2752,-172,16028,-125,138,-66
29258313,-2792,-208,15960,-93,85,-67
29261610,-2832,-216,15868,-61,180,-64
29265041,-2828,-204,15908,-82,28,-55
29268290,-2832,-304,15904,-73,201,-72
29271673,-2772,-268,16024,-81,47,-55
29274969,-2916,-220,15840,-69,160,-65
29278352,-2784,-188,15884,-132,86,-68
29281736,-2844,-232,15944,-64,111,-55
29285119,-2784,-200,15852,-108,94,-67
29288502,-2716,-280,15904,-85,75,-40
29291823,-2824,-156,16052,-123,172,-89
29295269,-2764,-188,15984,-98,75,-32
29298565,-2880,-64,15868,-64,146,-36
29301862,-2604,-276,16088,-102,125,-130
29305419,-2940,-212,15900,-63,112,-6
29308715,-2984,-184,15956,-87,89,-121
29312098,-2612,-276,15880,-60,115,-27
29315505,-3004,-228,15948,-116,78,-49
29318865,-2672,-216,15904,-58,128,-81
29322248,-2984,-224,15856,-112,117,-23
29325718,-2644,-276,16052,-83,115,-55
29329101,-2884,-108,16004,-86,96,-65
29332433,-2824,-184,15784,-100,99,-63
29335781,-2800,-184,16020,-112,120,-40
29339276,-2740,-260,15892,-99,65,-81
29342548,-2804,-268,15900,-83,190,-39
29345931,-2772,-40,15996,-94,68,-47
29349141,-2828,-248,16028,-55,152,-42
29352524,-2844,-188,15972,-117,71,-71
29355907,-2816,-236,16176,-89,172,-46
29359290,-2760,-280,15908,-124,117,-81
29362760,-2824,-240,15992,-73,105,-36
29366192,-2824,-232,16032,-125,140,-77
29369614,-2716,-228,15840,-74,64,-36
29372910,-2780,-116,15980,-119,138,-64
29376380,-2884,-172,15956,-89,48,-71
29379676,-2768,-228,15860,-98,206,-93
29383060,-2752,-236,16068,-99,69,-61
29386356,-2736,-220,15924,-69,166,-71
29389764,-2772,-136,15960,-79,46,-44
29393036,-2776,-116,16056,-62,120,-44
29396419,-2692,-296,15940,-113,79,-75
29399802,-2896,-232,15956,-54,170,-42
29403186,-2840,-244,16024,-121,94,-67
29406569,-2756,-216,15904,-62,81,-58
29409865,-2856,-160,15848,-115,166,-93
29413336,-2840,-224,16020,-86,71,-36
29416655,-2824,-296,15916,-133,143,-85
29420102,-2716,-276,15860,-83,42,-53
29423398,-2804,-240,15884,-105,183,-60
29426868,-2712,-232,16056,-121,53,-76
29430252,-2752,-320,15956,-63,161,-80
29433670,-2692,-240,16096,-102,46,-59
29437018,-2852,-184,16044,-81,88,-48
29440339,-2800,-148,15976,-107,102,-91
29443785,-2848,-212,15936,-90,26,-47
29447081,-2724,-268,16004,-115,161,-76
29450551,-2868,-280,15992,-74,81,-51
29453848,-2880,-328,16120,-57,197,-23
29457231,-2840,-276,15876,-103,40,-100
29460701,-2848,-224,15852,-82,104,-36
29464088,-2760,-180,15924,-109,88,-62
29467516,-2872,-264,15920,-61,97,-65
29470764,-2840,-176,16004,-116,112,-73
29474234,-2772,-236,15916,-68,96,-35
29477531,-2764,-256,15904,-105,158,-78
29481001,-2772,-212,16060,-91,54,-48
29484297,-2716,-164,16060,-112,167,-95
29487767,-2816,-204,15976,-100,76,-78
29491175,-2840,-296,16008,-86,187,-65
29494533,-2840,-300,15828,-122,56,-58
29497917,-2820,-208,16040,-56,135,-50
29501300,-2824,-280,16008,-108,51,-86
29504683,-2780,-168,15976,-63,113,-44
29508066,-2700,-156,15944,-116,102,-87
29511536,-2856,-196,15800,-66,90,-54
29514856,-2816,-168,15948,-117,145,-74
29518303,-2768,-252,15932,-90,60,-96
29521600,-2840,-140,16056,-106,195,-86
29525070,-2792,-104,15964,-95,68,-64
29528366,-2820,-204,15992,-98,179,-45
29531749,-2780,-224,15860,-79,51,-62
29535081,-2780,-148,16024,-99,193,-54
29538429,-2752,-232,15956,-108,71,-57
29541837,-2888,-180,15992,-64,173,-81
29545195,-2956,-240,15936,-110,113,-67
29548665,-2872,-196,16124,-59,114,-51
29552049,-2780,-176,15996,-93,105,-82
29555432,-2768,-244,15984,-72,81,-70
29558728,-2784,-172,15872,-89,166,-36
29562112,-2768,-152,16060,-108,40,-41
29565556,-2876,-220,15880,-74,183,-40
29568878,-2792,-244,15920,-106,46,-62
29572262,-2796,-220,15912,-51,102,-34
29575645,-2720,-84,16160,-113,107,-74
29579028,-2756,-184,16080,-82,64,-49
29582325,-2744,-328,16096,-125,136,-84
29585795,-2784,-196,16024,-79,83,-49
29589094,-2792,-124,16096,-75,171,-75
29592499,-2800,-204,16132,-70,48,-73
29595771,-2824,-232,15732,-89,184,-26
29599154,-2788,-236,15904,-101,76,-73
29602537,-2812,-208,15812,-58,134,-35
29605920,-2788,-196,15804,-111,133,-76
29609391,-2832,-232,16004,-75,95,-38
29612687,-2728,-180,15972,-119,121,-72
29616180,-2796,-240,15924,-93,84,-72
29619454,-2848,-156,15944,-102,165,-50
29622923,-2732,-256,15932,-100,52,-92
29626307,-2832,-308,15920,-51,152,-43
29629690,-2848,-220,15904,-99,75,-70
29632987,-2716,-204,15936,-77,135,-60
29636405,-2812,-172,15940,-124,70,-84
29639778,-2884,-248,16104,-65,83,-32
29643049,-2740,-200,15968,-123,155,-81
29646519,-2780,-228,16036,-85,60,-60
29649816,-2832,-232,15924,-92,182,-74
29653199,-2832,-208,16048,-84,38,-47
29656496,-2852,-156,15992,-86,192,-68
29659879,-2788,-232,15988,-115,55,-72
29663262,-2844,-244,15992,-71,193,-47
29666694,-2764,-188,15896,-125,83,-86
29670029,-2728,-208,15924,-46,101,-46
29673412,-2772,-280,15992,-122,97,-52
29676795,-2724,-256,15964,-76,69,-43
29680092,-2820,-264,15984,-113,155,-54
29683562,-2848,-224,16028,-68,55,-75
29686858,-2756,-260,15976,-106,160,-89
29690353,-2848,-116,15996,-96,55,-58
29693625,-2792,-136,15980,-73,187,-62
29697008,-2824,-264,15732,-100,55,-70
29700391,-2824,-308,16040,-71,194,-53
29703775,-2824,-180,15980,-111,61,-78
29707158,-2748,-292,16028,-85,109,-43
29710541,-2668,-256,16044,-127,126,-71
29714014,-2736,-108,15936,-54,102,-44
29717418,-2800,-304,15972,-92,180,-72
29720777,-2736,-192,15888,-102,97,-92
29724161,-2760,-324,16036,-101,174,-60
29727631,-2728,-292,16108,-89,81,-98
29730927,-2736,-140,16012,-85,153,-16
29734310,-2816,-200,15936,-136,107,-95
29737815,-2912,-188,15996,-53,127,-54
29741188,-2776,-236,16032,-88,48,-102
29744547,-2800,-276,16100,-80,90,-51
29747843,-2920,-204,16024,-110,148,-37
29751313,-2820,-268,15812,-106,45,-67
29754697,-2880,-248,15940,-100,187,-58
29758167,-2800,-176,15772,-102,64,-70
29761550,-2744,-192,15996,-95,181,-60
29764982,-2748,-336,16000,-100,55,-64
29768316,-2808,-160,15800,-63,156,-48
29771700,-2824,-188,15936,-133,80,-89
29775083,-2724,-284,16032,-57,99,-59
29778380,-2708,-140,15900,-116,98,-73
29781763,-2748,-152,15860,-61,121,-66
29785146,-2760,-272,15884,-95,182,-49
29788529,-2776,-248,15840,-95,57,-91
29791850,-2736,-196,16052,-105,154,-45
29795296,-2848,-168,15812,-85,53,-71
29798592,-2820,-312,15888,-91,200,-52
29801975,-2752,-200,16068,-96,76,-68
29805272,-2780,-224,15908,-63,140,-40
29808655,-2824,-220,15848,-114,71,-63
29812039,-2828,-220,16028,-78,104,-64
29815445,-2836,-288,15956,-144,141,-65
29818892,-2692,-276,16040,-79,35,-40
29822188,-2724,-208,16016,-90,188,-55
29825572,-2824,-220,16096,-73,44,-80
29828868,-2712,-196,16012,-90,177,-65
29832251,-2760,-124,15964,-89,52,-65
29835548,-2636,-288,15900,-78,177,-47
29838966,-2748,-184,16028,-90,54,-77
29842252,-2788,-112,16024,-81,139,-63
29845611,-2848,-156,15992,-97,50,-53
29848907,-2812,-168,15892,-69,105,-68
29852290,-2836,-324,16072,-125,112,-93
29855761,-2876,-236,15968,-102,77,-72
29859144,-2864,-240,15956,-126,174,-65
29862614,-2804,-104,15956,-72,57,-33
29865959,-2816,-212,15988,-94,173,-65
29869294,-2744,-232,16108,-73,39,-44
29872590,-2696,-164,16044,-78,172,-32
29875973,-2728,-172,15964,-127,92,-57
29879356,-2828,-152,15944,-73,133,-100
29882827,-2824,-144,16052,-110,155,-63
29886297,-2724,-100,15908,-85,85,-86
29889617,-2844,-148,16100,-64,178,-79
29892976,-2816,-192,15780,-116,80,-75
29896360,-2856,-200,15884,-84,189,-66
29899743,-2680,-164,15988,-87,71,-62
29903039,-2796,-188,16016,-87,184,-73
29906423,-2896,-176,15836,-84,42,-51
29909719,-2812,-188,16028,-63,145,-43
29913102,-2760,-200,16112,-107,65,-67
29916509,-2784,-252,16052,-53,89,-51
29919782,-2736,-160,15912,-129,108,-58
29923252,-2744,-220,15996,-80,134,-74
29926635,-2808,-240,16000,-100,178,-36
29930105,-2724,-192,16000,-77,74,-50
29933402,-2800,-220,15796,-73,165,-44
29936785,-2808,-204,16024,-103,75,-88
29940211,-2744,-136,15872,-98,195,-58
29943552,-2640,-240,15872,-118,73,-83
29946935,-2800,-236,15992,-44,191,-55
29950318,-2732,-240,15808,-115,137,-49
29953788,-2824,-184,15984,-55,104,-37
29957171,-2736,-268,15908,-130,85,-75
29960555,-2700,-244,15980,-90,79,-66
29963854,-2812,-152,15892,-108,137,-80
29967370,-2760,-272,15928,-101,46,-61
29970704,-2764,-152,15892,-78,158,-46
29974087,-2812,-232,16036,-104,35,-96
29977471,-2848,-264,16004,-42,168,-13
29980854,-2728,-188,16000,-112,93,-100
29984324,-2848,-284,16072,-62,113,-50
29987707,-2800,-216,15880,-119,122,-46
29991202,-2836,-152,16008,-84,52,-41
29994474,-2720,-244,15860,-125,174,-78
29997944,-2904,-252,15892,-73,83,-71
30001240,-2796,-220,15920,-102,181,-64
30004710,-2856,-256,16100,-94,73,-78
30008007,-2760,-260,15936,-83,149,-67
30011390,-2796,-180,16032,-96,32,-66
30014711,-2764,-212,15840,-55,189,-34
30018070,-2792,-144,15992,-120,97,-76
30021453,-2804,-184,15924,-40,125,-5
30024750,-2892,-248,16024,-106,131,-88
30028219,-2772,-164,16068,-115,60,-65
30031603,-2836,-208,15940,-93,138,-57
30034986,-2808,-232,15968,-76,59,-61
30038282,-2728,-228,16004,-105,164,-74
30041794,-2684,-256,15972,-79,75,-53
30045049,-2776,-212,16004,-76,155,-55
30048432,-2860,-172,15936,-94,44,-68
30051729,-2772,-212,15904,-49,143,-65
30055112,-2860,-188,15976,-141,107,-73
30058582,-2856,-200,16008,-48,108,-59
30061965,-2732,-152,15848,-106,158,-97
30065538,-2772,-164,16012,-63,89,-23
30068732,-2828,-260,15992,-136,142,-42
30072202,-2736,-108,16128,-99,52,-76
30075498,-2792,-128,16024,-91,172,-46
30078882,-2720,-260,15860,-102,76,-47
30082265,-2832,-188,16036,-63,135,-56
30085648,-2740,-168,15968,-115,86,-91
30089035,-2620,-192,15956,-77,100,-39
30092439,-2844,-176,15988,-75,118,-70
30095798,-2788,-312,15892,-93,83,-69
30099094,-2888,-284,15948,-93,179,-58
30102478,-2820,-276,15960,-91,74,-75
30105774,-2764,-208,16084,-55,186,-33
30109157,-2836,-276,15928,-108,66,-90
30112541,-2772,-148,15920,-64,124,-48
30115948,-2728,-184,16036,-118,99,-72
30119307,-2716,-188,15900,-62,144,-68
30122690,-2756,-164,15900,-120,123,-64
30126160,-2868,-216,15948,-66,91,-50
30129457,-2804,-160,15896,-121,113,-85
30132927,-2684,-296,15852,-79,59,-53
30136223,-2908,-284,15816,-100,168,-80
30139716,-2784,-280,16052,-101,50,-69
30143116,-2780,-92,15920,-53,176,-27
30146373,-2852,-208,15920,-92,53,-103
30149756,-2856,-340,16016,-61,136,-57
30153139,-2728,-196,15900,-103,69,-38
30156523,-2796,-204,15828,-87,113,-14
30159906,-2888,-172,15772,-113,102,-63
30163376,-2716,-252,15916,-93,75,-65
30166721,-2880,-284,15888,-106,161,-49
30170143,-2772,-256,16048,-70,96,-86
30173439,-2848,-236,16000,-46,151,-29
30176822,-2696,-256,16068,-104,124,-99
30180292,-2836,-292,15940,-52,132,-33
30183675,-2792,-236,16004,-121,68,-94
30187059,-2872,-172,16084,-45,150,-23
30190467,-2756,-216,16028,-132,90,-86
30193825,-2744,-200,16048,-54,124,-70
30197209,-2736,-172,15900,-121,188,-70
30200679,-2872,-192,15992,-66,79,-52
30203975,-2656,-256,15924,-106,146,-44
30207445,-2808,-232,15976,-86,56,-64
30210742,-2788,-164,15912,-85,190,-63
30214128,-2756,-252,16044,-96,47,-52
30217446,-2696,-164,15916,-73,164,-38
30220804,-2820,-176,15940,-108,74,-48
30224188,-2884,-200,16104,-67,97,-24
30227484,-2816,-244,15892,-103,108,-84
30230954,-2784,-160,15848,-81,117,-38
30234337,-2840,-220,15960,-108,156,-63
30237808,-2864,-184,15924,-114,67,-51
30241214,-2840,-200,16028,-83,184,-43
30244609,-2768,-272,16012,-67,65,-80
30247871,-2740,-144,16108,-85,215,-48
30251254,-2760,-108,16000,-99,77,-61
30254550,-2712,-208,15912,-70,161,-45
30257933,-2788,-136,15856,-111,76,-79
30261317,-2676,-188,15884,-75,125,-71
30264748,-2828,-256,16132,-118,101,-71
30268170,-2860,-252,16064,-63,56,-76
30271466,-2792,-168,15948,-124,156,-70
30274937,-2728,-172,15980,-80,44,-81
30278233,-2832,-168,16008,-101,172,-31
30281703,-2796,-120,15968,-88,68,-62
30285000,-2776,-180,16076,-60,163,-64
30288383,-2800,-172,15884,-93,66,-68
30291704,-2928,-248,15956,-65,109,-67
30295062,-2716,-148,15972,-113,85,-46
30298446,-2764,-244,16084,-64,150,-92
30301829,-2792,-344,15948,-111,123,-29
30305299,-2812,-300,15912,-77,105,-66
30308682,-2784,-340,15960,-54,191,-70
30312065,-2844,-260,15932,-87,67,-61
30315387,-2896,-244,15884,-78,166,-84
30318745,-2788,-200,15956,-112,82,-77
30322128,-2776,-200,15936,-71,150,-42
30325512,-2828,-244,15948,-88,55,-71
30328808,-2732,-212,15996,-65,126,-96
30332191,-2856,-176,15964,-106,123,-75
30335662,-2704,-172,15988,-72,64,-57
30338961,-2812,-296,16012,-102,186,-65
30342451,-2892,-184,15980,-81,88,-23
30345760,-2840,-264,15924,-83,182,-95
30349108,-2840,-232,15980,-79,55,-47
30352404,-2848,-316,15868,-79,148,-49
30355787,-2892,-280,15900,-108,101,-85
30359257,-2736,-228,16088,-83,132,-56
30362641,-2840,-336,15904,-116,154,-61
30366159,-2900,-240,15936,-72,89,-55
30369407,-2760,-236,15948,-94,192,-56
30372791,-2908,-176,16076,-90,56,-72
30376087,-2712,-220,15972,-83,206,-61
30379470,-2796,-232,15980,-91,54,-62
30382767,-2984,-228,16044,-54,169,-53
30386150,-2764,-224,15812,-82,53,-84
30389471,-2708,-156,15936,-52,97,-49
30392743,-2760,-228,16004,-115,115,-64
30396213,-2788,-240,16064,-86,73,-58
30399510,-2784,-252,16104,-120,157,-102
30403066,-2788,-176,15928,-72,78,-61
30406363,-2776,-232,15892,-80,177,-62
30409746,-2760,-200,15916,-111,73,-64
30413129,-2764,-184,15968,-42,139,-42
30416537,-2844,-276,15864,-98,69,-67
30419809,-2812,-176,16020,-55,152,-80
30423192,-2816,-228,15904,-118,144,-74
30426662,-2808,-188,16152,-59,95,-53
30429959,-2704,-140,15808,-116,128,-76
30433429,-2728,-192,16028,-72,80,-77
30436725,-2872,-228,15980,-99,151,-63
30440132,-2764,-224,15820,-99,63,-86
30443405,-2740,-344,15992,-72,184,-61
30446823,-2684,-228,15888,-92,56,-74
30450085,-2816,-168,15992,-69,133,-55
30453468,-2772,-284,15980,-107,81,-40
30456851,-2748,-244,15968,-59,143,-54
30460235,-2876,-248,15940,-125,145,-86
30463708,-2760,-344,16068,-75,92,-76
30467050,-2872,-168,16024,-98,205,-70
30470384,-2900,-212,15876,-69,76,-71
30473681,-2836,-220,15880,-90,182,-46
30477064,-2792,-256,16132,-93,59,-54
30480361,-2764,-204,15884,-70,163,-45
30483744,-2844,-196,16048,-86,63,-74
30487040,-2728,-236,15940,-66,114,-74
30490453,-2840,-268,15904,-112,78,-67
30493807,-2712,-276,15936,-83,102,-79
30497190,-2780,-272,15888,-121,152,-67
30500660,-2620,-212,15912,-62,104,-61
30504043,-2724,-212,16020,-87,166,-69
30507426,-2768,-220,15860,-105,73,-61
30510810,-2696,-176,15876,-63,165,-42
30514217,-2724,-176,16024,-86,32,-68
30517490,-2792,-220,15880,-81,213,-52
30520873,-2820,-192,16008,-81,60,-77
30524169,-2824,-280,16016,-57,167,-40
30527552,-2704,-336,15892,-87,44,-65
30530849,-2764,-216,16056,-88,123,-40
30534232,-2772,-260,15996,-95,99,-73
30537529,-2788,-272,16024,-66,81,-50
30540849,-2804,-252,16028,-113,154,-80
30544295,-2628,-176,15900,-65,55,-61
30547627,-2796,-200,16000,-74,178,-40
30550975,-2868,-288,16000,-99,51,-59
30554271,-2704,-328,16024,-96,194,-79
30557655,-2784,-224,15920,-84,51,-85
30560951,-2772,-352,15848,-77,161,-28
30564395,-2792,-260,16044,-118,113,-64
30567805,-2832,-256,16076,-64,98,-76
30571101,-2740,-168,16012,-102,94,-73
30574484,-2892,-196,15904,-57,83,-67
30577781,-2712,-136,15972,-137,122,-81
30581251,-2828,-216,16088,-76,94,-44
30584547,-2812,-180,15828,-111,170,-77
30588017,-2836,-296,15900,-90,49,-63
30591338,-2832,-224,16000,-91,171,-48
30594697,-2768,-176,16172,-65,76,-69
30597993,-2740,-248,15992,-79,148,-38
30601377,-2836,-248,15932,-105,96,-82
30604760,-2840,-236,15852,-64,149,-65
30608143,-2796,-244,15968,-101,82,-48
30611526,-2828,-300,16024,-90,80,-84
30614848,-2780,-212,15936,-98,115,-55
30618206,-2760,-224,16056,-101,77,-69
30621590,-2836,-212,15912,-96,181,-47
30624973,-2860,-204,16020,-95,83,-73
30628269,-2692,-148,15924,-44,175,-46
30631652,-2744,-232,16004,-108,57,-78
30635036,-2904,-264,15956,-49,181,-16
30638419,-2824,-148,16152,-121,77,-81
30641825,-2756,-204,15968,-55,133,-41
30645185,-2816,-236,16052,-130,139,-88
30648690,-2800,-240,15936,-60,63,-38
30651952,-2744,-188,15912,-130,137,-104
30655509,-2800,-244,15984,-64,50,-31
30658805,-2808,-188,16052,-85,180,-89
30662188,-2820,-188,16012,-111,66,-55
30665620,-2824,-280,15936,-56,138,-74
30668955,-2848,-248,16012,-95,117,-64
30672338,-2780,-248,16012,-89,111,-85
30675721,-2864,-104,16048,-82,117,-46
30679105,-2812,-268,16076,-70,92,-63
30682401,-2960,-168,16020,-112,152,-65
30685871,-2700,-248,16000,-84,68,-89
30689192,-2752,-248,16016,-83,183,-41
30692551,-2852,-28,15964,-87,60,-60
30695761,-2800,-212,16100,-88,186,-60
30699144,-2844,-220,16012,-122,50,-101
30702614,-2828,-212,15948,-67,190,-66
30705997,-2740,-156,16024,-110,76,-71
30709381,-2820,-284,15976,-58,131,-28
30712764,-2792,-264,15888,-115,153,-71
30716258,-2664,-240,16032,-98,79,-55
30719530,-2896,-228,15932,-104,120,-56
30723000,-2728,-272,16056,-93,62,-62
30726297,-2840,-176,15956,-108,185,-43
30729767,-2848,-116,15892,-117,42,-42
30733150,-2880,-284,16016,-63,177,-64
30736533,-2752,-240,15968,-102,35,-51
30739940,-2880,-276,15980,-54,107,-71
30743300,-2804,-120,15996,-120,58,-54
30746683,-2740,-300,15984,-100,90,-83
30750101,-2860,-156,15952,-102,110,-31
30753536,-2784,-228,15968,-136,83,-101
30757006,-2948,-220,15892,-69,143,-18
30760389,-2948,-168,15764,-110,78,-83
30763776,-3008,-516,16120,-34,145,-26
30767204,-2728,-248,15980,-131,45,-11
30770539,-2988,-300,15928,-88,90,-36
30773836,-2636,-240,15952,-122,100,-45
30777306,-2888,-64,15940,-98,123,-91
30780602,-2672,-172,15876,-102,179,-57
30784072,-2596,-60,15984,-99,88,-78
30787282,-2744,-32,16012,-78,151,-39
30790603,-2644,-128,16024,-107,83,-104
30794048,-2788,-96,16048,-77,158,-44
30797345,-2720,-104,15848,-126,94,-119
30800815,-2876,-200,16120,-65,129,-43
30804198,-2772,-280,15840,-103,97,-80
30807581,-2944,-256,16012,-72,70,-49
30810878,-2928,-368,15884,-122,123,-66
30814372,-2932,-312,15808,-79,58,-19
30817645,-2848,-396,16004,-135,146,-67
30821114,-2804,-220,16044,-96,84,-51
30824411,-2852,-240,15816,-57,174,-72
30827794,-2780,-148,15816,-105,55,-64
30831178,-2736,-176,15936,-58,158,-32
30834561,-2708,-128,16048,-107,74,-87
30837944,-2740,-176,15984,-49,152,-64
30841350,-2776,-112,16048,-117,105,-69
30844797,-2816,-196,15980,-77,127,-70
30848180,-2924,-196,16052,-127,139,-78
30851686,-2892,-220,15760,-65,67,-70
30854947,-2892,-368,15888,-113,133,-69
30858417,-2808,-284,15920,-73,52,-90
30861713,-2860,-348,15904,-106,160,-26
30865232,-2920,-312,15788,-102,55,-42
30868567,-2760,-272,16088,-46,171,-33
30871950,-2820,-244,15992,-102,72,-72
30875333,-2704,-84,15984,-53,131,-57
30878630,-2660,-160,16016,-105,99,-42
30882013,-2664,-212,15916,-76,65,-62
30885310,-2772,-144,16000,-109,123,-97
30888783,-2724,-100,16028,-94,104,-82
30892187,-2808,-152,16068,-109,162,-50
30895633,-2864,-256,15956,-86,85,-74
30898929,-3000,-368,16064,-82,211,-42
30902312,-2896,-128,15864,-97,59,-52
30905609,-2876,-152,15796,-69,181,-52
30908992,-2924,-308,15852,-109,87,-66
30912376,-2768,-344,16064,-56,116,-31
30915783,-2888,-188,16080,-134,142,-50
30919229,-2816,-264,16032,-63,125,-56
30922612,-2824,-228,15928,-111,119,-68
30926082,-2680,-196,15988,-75,55,-34
30929378,-2684,-196,16044,-120,185,-64
30932848,-2724,-176,15792,-91,56,-80
30936145,-2752,-188,15956,-82,182,-81
30939551,-2760,-272,16044,-74,87,-59
30942825,-2912,-248,15940,-80,170,-60
30946208,-2872,-248,15748,-107,46,-101
30949678,-2772,-240,15924,-52,90,-75
30953010,-2836,-164,16116,-117,120,-56
30956445,-2884,-256,16008,-51,100,-26
30959828,-2860,-248,16016,-116,169,-41
30963298,-2916,-284,15924,-72,49,-43
30966644,-2764,-248,16056,-100,193,-32
30970064,-2784,-284,15932,-117,67,-38
30973448,-2716,-204,15836,-84,172,-67
30976831,-2728,-192,15948,-106,44,-82
30980214,-2736,-240,16032,-58,183,-20
30983597,-2784,-156,16076,-132,112,-92
30987067,-2804,-212,15828,-54,125,-67
30990475,-2824,-268,16020,-120,132,-79
30993921,-2748,-200,15916,-84,64,-53
30997217,-2828,-224,15928,-120,150,-91
31000687,-2824,-276,15992,-83,64,-59
31003983,-2844,-224,15976,-107,173,-67
31007454,-2860,-224,15904,-123,22,-53
31010837,-2788,-256,16044,-60,189,-51
31014245,-2752,-24,15936,-88,52,-63
31017430,-2724,-184,15968,-68,135,-47
31020813,-2716,-272,16052,-111,88,-69
31024196,-2808,-116,15868,-43,162,-64
31027579,-2764,-220,15852,-87,121,-79
31030963,-2748,-240,15988,-60,101,-57
31034346,-2668,-148,16064,-92,190,-71
31037729,-2796,-244,15920,-90,71,-83
31041049,-2816,-176,15932,-111,155,-70
31044496,-2756,-268,16044,-89,52,-59
31047792,-2840,-244,15816,-83,162,-57
31051175,-2780,-172,15956,-135,93,-66
31054594,-2780,-264,15960,-67,158,-70
31057942,-2868,-200,16044,-110,74,-84
31061325,-2808,-256,15924,-71,67,-14
31064724,-2764,-204,16032,-139,129,-63
31068092,-2732,-200,15972,-77,73,-64
31071388,-2768,-204,15976,-113,167,-44
31074858,-2772,-144,15936,-84,70,-77
31078155,-2788,-120,16088,-63,196,-73
31081538,-2804,-164,15920,-103,41,-78
31084921,-2800,-232,16032,-91,179,-52
31088305,-2796,-308,16148,-88,73,-72
31091626,-2876,-188,15920,-80,179,-68
31094984,-2940,-212,15980,-109,117,-75
31098454,-2832,-208,15940,-64,91,-50
31101751,-2720,-296,15972,-138,72,-85
31105134,-2916,-232,16124,-47,83,-48
31108431,-2692,-160,16176,-125,116,-70
31111900,-2832,-328,16032,-99,78,-50
31115221,-2720,-284,16084,-121,174,-56
31118667,-2828,-144,16084,-64,82,-54
31121963,-2760,-144,15980,-93,185,-65
31125347,-2772,-156,15980,-95,49,-38
31128643,-2732,-192,16024,-78,186,-71
31132027,-2812,-152,15932,-97,70,-57
31135323,-2788,-180,16016,-69,141,-26
31138710,-2864,-284,15836,-90,78,-56
31142026,-2788,-172,15732,-46,110,-59
31145386,-2912,-264,15936,-121,112,-77
31148856,-2796,-264,15992,-86,34,-53
31152153,-2804,-256,15852,-126,160,-59
31155661,-2720,-272,16056,-94,48,-48
31158919,-2832,-160,16012,-101,174,-77
31162389,-2640,-216,15996,-101,42,-76
31165821,-2788,-352,15880,-64,176,-56
31169156,-2732,-184,15996,-107,66,-60
31172539,-2664,-156,15932,-68,166,-53
31175922,-2892,-280,15988,-86,96,-51
31179218,-2740,-268,16048,-72,131,-47
31182602,-2752,-204,15844,-118,127,-69
31186072,-2780,-216,15952,-70,102,-55
31189479,-2808,-180,15764,-94,120,-71
31192838,-2784,-244,15960,-88,60,-71
31196135,-2812,-200,15972,-101,206,-54
31199605,-2848,-240,15972,-127,37,-41
31202988,-2848,-236,15964,-43,181,-47
31206371,-2924,-284,16004,-102,46,-53
31209754,-2892,-156,16084,-75,100,-44
31213138,-2752,-216,15892,-103,96,-75
31216546,-2752,-144,15852,-72,89,-68
31219818,-2712,-212,15960,-92,123,-61
31223201,-2724,-204,15972,-93,79,-54
31226497,-2820,-192,15932,-85,202,-77
31229881,-2716,-76,15892,-85,75,-77
31233090,-2876,-144,15948,-116,152,-38
31236560,-2844,-168,16060,-93,72,-71
31239880,-2860,-260,15908,-66,197,-56
31243240,-2824,-272,15928,-122,64,-49
31246623,-2776,-272,15828,-50,143,-55
31250007,-2924,-208,16036,-124,91,-78
31253390,-2820,-232,15960,-88,87,-69
31256721,-2696,-164,15892,-126,105,-90
31260156,-2812,-168,15844,-98,48,-70
31263453,-2828,-152,15952,-102,188,-47
31266971,-2732,-172,16048,-92,51,-56
31270219,-2804,-244,15924,-68,145,-48
31273603,-2808,-248,15864,-104,84,-86
31276986,-2836,-276,16012,-92,125,-73
31280369,-2792,-240,15908,-109,170,-74
31283839,-2708,-200,15812,-85,94,-39
31287135,-2760,-252,15940,-97,177,-50
31290543,-2908,-292,15800,-95,73,-77
31293815,-2860,-152,15932,-110,210,-64
31297285,-2788,-236,15964,-96,55,-55
31300582,-2784,-244,15764,-75,154,-66
31303965,-2748,-228,15928,-115,121,-69
31307435,-2780,-252,15936,-67,104,-68
31310818,-2748,-168,16020,-129,94,-40
31314226,-2856,-192,16012,-82,100,-92
31317585,-2908,-212,15928,-110,154,-67
31321055,-2756,-288,16092,-88,66,-79
31324351,-2900,-232,15960,-104,177,-47
31327821,-2832,-224,15916,-87,46,-58
31331118,-2720,-240,16044,-71,159,-47
31334501,-2748,-296,15952,-78,50,-87
31337797,-2740,-188,15884,-91,156,-47
31341204,-2740,-276,15896,-123,89,-55
31344564,-2824,-324,16024,-31,114,-65
31347947,-2880,-220,16068,-126,151,-52
31351417,-2832,-200,16140,-74,73,-59
31354714,-2712,-180,15904,-106,136,-84
31358219,-2820,-200,15912,-77,50,-74
31361480,-2848,-176,16000,-103,176,-69
31364999,-2676,-148,15884,-112,63,-78
31368334,-2788,-152,15932,-65,152,-58
31371717,-2812,-192,16020,-131,112,-45
31375187,-2764,-144,15964,-38,102,-83
31378570,-2804,-220,16040,-112,75,-49
31381953,-2848,-244,15976,-73,56,-57
31385250,-2776,-328,15944,-118,175,-66
31388723,-2828,-116,16060,-93,44,-79
31392041,-2812,-192,16036,-107,184,-38
31395486,-2716,-256,15940,-91,56,-39
31398783,-2844,-188,15964,-70,185,-45
31402166,-2720,-216,15824,-96,46,-47
31405463,-2760,-196,16080,-103,201,-73
31408933,-2904,-196,15976,-83,55,-51
31412229,-2700,-232,15900,-75,179,-51
31415637,-2728,-148,16008,-102,125,-62
31419082,-2836,-128,16088,-68,96,-69
31422379,-2848,-160,15904,-146,71,-91
31425762,-2808,-244,15916,-81,93,-80
31429059,-2896,-236,15920,-116,128,-66
31432528,-2804,-152,16040,-94,52,-51
31435825,-2780,-280,16016,-110,172,-86
31439318,-2772,-232,16004,-81,63,-77
31442592,-2768,-288,15968,-60,176,-34
31445975,-2736,-188,15924,-97,88,-76
31449271,-2792,-176,16044,-67,146,-34
31452655,-2824,-120,16108,-132,105,-69
31456124,-2884,-228,16020,-49,144,-41
31459543,-2804,-212,16012,-102,160,-88
31462978,-2780,-184,16000,-78,67,-70
31466323,-2812,-188,16052,-76,200,-65
31469658,-2812,-288,16084,-86,66,-43
31472954,-2740,-188,16056,-115,157,-37
31476424,-2812,-160,15920,-105,64,-64
31479807,-2868,-244,16044,-59,158,-43
31483190,-2632,-348,16004,-111,113,-83
31486661,-2856,-184,15992,-87,83,-52
31489981,-2720,-124,16160,-95,139,-51
31493340,-2688,-252,15872,-93,75,-71
31496637,-2800,-152,15948,-116,177,-65
31500107,-2800,-96,15980,-102,50,-76
31503403,-2612,-208,15992,-78,175,-63
31506786,-2864,-216,15996,-113,60,-53
31510170,-2780,-240,16140,-89,127,-36
31513553,-2836,-172,16008,-109,87,-74
31516961,-2760,-308,15924,-54,162,-45
31520319,-2888,-216,15816,-105,94,-59
31523703,-2832,-312,15912,-70,127,-64
31527086,-2836,-256,15960,-102,156,-58
31530556,-2856,-104,16044,-93,64,-62
31533852,-2804,-204,15880,-117,168,-73
31537323,-2844,-216,15988,-105,49,-61
31540729,-2672,-228,15884,-81,189,-57
31544089,-2876,-220,15852,-119,79,-73
31547472,-2748,-88,16072,-72,147,-42
31550769,-2780,-224,15912,-117,83,-64
31554152,-2796,-180,15984,-74,76,-68
31557449,-2836,-244,15872,-103,145,-67
31560953,-2808,-236,15872,-97,51,-91
31564276,-2828,-152,15916,-100,173,-42
31567685,-2748,-192,15880,-76,64,-56
31570982,-2852,-296,15916,-66,210,-56
31574365,-2852,-340,16120,-130,63,-53
31577748,-2924,-240,16004,-83,97,-54
31581045,-2792,-260,15940,-96,95,-57
31584341,-2808,-100,15904,-40,132,-56
31587724,-2748,-204,15988,-110,115,-91
31591219,-2808,-188,16024,-63,80,-56
31594491,-2808,-188,15928,-135,115,-79
31597961,-2700,-196,16028,-105,61,-94
31601344,-2804,-184,16044,-130,165,-81
31604814,-2780,-244,15968,-108,89,-77
31608197,-2836,-176,15972,-65,167,-31
31611580,-2812,-108,15844,-94,95,-53
31614902,-2880,-268,16016,-62,100,-57
31618260,-2836,-224,15860,-104,66,-57
31621643,-2812,-108,15984,-88,102,-41
31625027,-2700,-204,15924,-105,106,-61
31628497,-2840,-240,15996,-92,64,-67
31631793,-2900,-216,16008,-101,151,-73
31635263,-2764,-116,15908,-83,99,-71
31638563,-2784,-116,15932,-62,178,-30
31641966,-2772,-220,15980,-105,66,-89
31645326,-2832,-228,16052,-60,165,-34
31648710,-2752,-232,15848,-102,67,-56
31652093,-2836,-240,15932,-48,149,-65
31655476,-2684,-180,15948,-108,90,-109
31658946,-2824,-176,15984,-61,116,-57
31662364,-2772,-256,16148,-98,195,-58
31665761,-2896,-164,15980,-78,54,-76
31669009,-2840,-300,16076,-92,169,-47
31672392,-2860,-184,16040,-111,80,-59
31675775,-2800,-156,16080,-75,186,-48
31679159,-2720,-212,16012,-91,41,-87
31682455,-2812,-224,16052,-37,147,-55
31685838,-2776,-232,15812,-122,56,-65
31689246,-2736,-136,16012,-64,104,-43
31692605,-2756,-248,15944,-142,103,-56
31696075,-2876,-136,15912,-48,115,-72
31699458,-2848,-164,16016,-110,173,-78
31702928,-2888,-248,15984,-87,78,-46
31706225,-2756,-236,15964,-54,180,-70
31709608,-2812,-212,15888,-90,55,-82
31712904,-2752,-256,16020,-81,187,-52
31716312,-2812,-124,16044,-98,71,-87
31719584,-2924,-224,15920,-46,148,-51
31722967,-2840,-188,16052,-108,60,-70
31726351,-2808,-168,15984,-77,115,-35
31729734,-2840,-216,15944,-116,106,-55
31733204,-2808,-220,15960,-67,78,-73
31736500,-2708,-148,16044,-139,170,-45
31739994,-2748,-264,15864,-70,51,-59
31743267,-2808,-164,15968,-110,209,-67
31746737,-2828,-272,16024,-99,50,-64
31750033,-2784,-124,15944,-67,187,-62
31753417,-2852,-276,15932,-92,45,-62
31756713,-2792,-244,16064,-76,171,-53
31760097,-2800,-116,16064,-122,109,-61
31763605,-2856,-256,15940,-70,134,-82
31766998,-2836,-180,15692,-112,134,-61
31770420,-2828,-188,15936,-89,76,-46
31773716,-2848,-204,15876,-109,130,-75
31777186,-2832,-316,15964,-91,58,-84
31780483,-2792,-224,15964,-98,184,-62
31783866,-2776,-216,15752,-91,47,-71
31787163,-2836,-212,15796,-62,169,-45
31790570,-2792,-184,15956,-101,44,-56
31793929,-2792,-220,15888,-42,95,-56
31797225,-2716,-144,15924,-104,81,-80
31800609,-2760,-236,15916,-73,166,-37
31803992,-2872,-256,16012,-106,155,-89
31807462,-2920,-172,15948,-82,77,-78
31810758,-2780,-188,16000,-104,169,-64
31814253,-2744,-348,15972,-97,81,-43
31817525,-2688,-228,16020,-97,174,-75
31820908,-2744,-172,15932,-111,67,-65
31824291,-2908,-212,15872,-96,191,-47
31827675,-2756,-176,15948,-103,70,-66
31831058,-2848,-156,15992,-58,144,-31
31834441,-2772,-244,16044,-98,60,-72
31837738,-2736,-156,16180,-87,111,-36
31841144,-2772,-268,15948,-113,84,-85
31844504,-2716,-184,15884,-49,83,-63
31847801,-2832,-180,15908,-131,144,-45
31851271,-2824,-264,15868,-69,93,-53
31854567,-2704,-228,15900,-98,167,-65
31857951,-2808,-220,15984,-76,44,-54
31861247,-2748,-216,16012,-128,164,-73
31864784,-2756,-184,15976,-107,53,-79
31868100,-2776,-220,15940,-56,198,-66
31871484,-2824,-288,16068,-128,77,-64
31874867,-2888,-180,15776,-69,149,-47
31878250,-2752,-184,15844,-91,80,-68
31881546,-2696,-176,15936,-82,104,-55
31884930,-2804,-216,16076,-131,100,-57
31888400,-2852,-204,15904,-93,69,-85
31891721,-2748,-236,15940,-106,174,-55
31895166,-2724,-200,15892,-89,71,-50
31898463,-2868,-236,15988,-69,191,-48
31901846,-2780,-228,15920,-93,49,-57
31905142,-2632,-340,16060,-73,197,-50
31908526,-2820,-220,15900,-113,106,-80
31911996,-2704,-172,15912,-53,148,-36
31915404,-2840,-144,15848,-136,93,-71
31918762,-2748,-200,15932,-60,100,-50
31922146,-2772,-224,15956,-120,178,-69
31925616,-2824,-212,15852,-85,58,-70
31928912,-2828,-228,16020,-129,143,-54
31932382,-2780,-336,15936,-114,54,-109
31935852,-2824,-244,15896,-69,175,-31
31939260,-2836,-228,15868,-119,77,-70
31942619,-2872,-152,15968,-71,153,-52
31946002,-2752,-288,15912,-127,131,-72
31949472,-2804,-180,15920,-74,107,-32
31952855,-2772,-164,15936,-125,108,-92
31956325,-2828,-236,16172,-86,62,-41
31959621,-2640,-280,15796,-115,146,-101
31963178,-2796,-136,15828,-102,38,-90
31966628,-2760,-328,15828,-95,187,-72
31969945,-2720,-268,15924,-116,61,-45
31973328,-2692,-248,15840,-74,154,-77
31976711,-2764,-156,16012,-88,70,-69
31980008,-2708,-244,15876,-46,114,-59
31983391,-2796,-244,15968,-106,92,-53
31986774,-2736,-116,15900,-67,148,-38
31990182,-2784,-244,15936,-94,136,-76
31993541,-2824,-240,15896,-76,106,-61
31996924,-2712,-140,15924,-68,187,-56
32000307,-2812,-196,15916,-103,67,-70
32003690,-2828,-236,15840,-90,193,-76
32007074,-2728,-116,15992,-96,80,-63
32010370,-2844,-172,16024,-84,172,-49
32013757,-2832,-200,15776,-93,79,-80
32017074,-2812,-216,15788,-85,110,-72
32020433,-2720,-384,15848,-103,76,-74
32023816,-2808,-220,15956,-64,97,-57
32027113,-2824,-184,15872,-121,146,-91
32030583,-2784,-164,15732,-73,97,-60
32033880,-2648,-160,15928,-93,188,-70
32037263,-2796,-212,15928,-78,68,-53
32040584,-2776,-156,16008,-104,182,-65
32044029,-2872,-164,16152,-116,31,-58
32047413,-2800,-240,15792,-61,211,-71
32050796,-2808,-228,16108,-98,60,-90
32054092,-2792,-188,15924,-78,161,-50
32057476,-2784,-264,15964,-136,116,-67
32060946,-2852,-296,16096,-44,122,-66
32064430,-2708,-180,16060,-109,165,-100
32067924,-2856,-276,15896,-85,67,-63
32071182,-2776,-184,15984,-121,151,-89
32074652,-2856,-156,15984,-100,70,-58
32078035,-2820,-104,15940,-89,180,-72
32081418,-2848,-196,16044,-106,73,-73
32084802,-2804,-136,15900,-60,128,-59
32088185,-2836,-172,16040,-91,84,-61
32091511,-2668,-124,16092,-79,94,-95
32094778,-2748,-236,16056,-117,127,-60
32098248,-2732,-228,15920,-55,108,-56
32101631,-2864,-216,16036,-105,169,-88
32105101,-2848,-160,15828,-83,66,-17
32108398,-2880,-264,16036,-78,179,-48
32111781,-2760,-276,15872,-97,35,-51
32115102,-2792,-264,16056,-114,199,-67
32118547,-2868,-164,15828,-120,38,-69
32121931,-2720,-220,15928,-52,176,-35
32125314,-2780,-300,16048,-128,121,-76
32128784,-2808,-284,16044,-80,90,-60
32132081,-2820,-192,16100,-110,89,-77
32135464,-2760,-296,15952,-74,95,-70
32138764,-2808,-192,15872,-117,146,-79
32142255,-2772,-152,16016,-96,59,-75
32145527,-2880,-184,15976,-100,198,-55
32148997,-2816,-204,15808,-79,41,-51
32152293,-2704,-288,16040,-87,182,-73
32155677,-2844,-276,15860,-92,67,-60
32158973,-2724,-304,15936,-66,124,-77
32162356,-2736,-264,15764,-136,70,-63
32165787,-2824,-208,16092,-65,116,-62
32169158,-2852,-172,15948,-119,178,-60
32172593,-2840,-204,16040,-71,75,-73
32175889,-2892,-228,16072,-97,185,-46
32179272,-2812,-244,16080,-106,46,-39
32182656,-2768,-92,15988,-115,200,-36
32186039,-2764,-228,15872,-109,53,-56
32189447,-2852,-204,16044,-82,173,-59
32192806,-2788,-184,16020,-99,65,-54
32196102,-2832,-272,16068,-60,133,-65
32199485,-2772,-256,15964,-82,70,-53
32202782,-2856,-184,15892,-102,90,-40
32206165,-2828,-284,15996,-108,150,-75
32209635,-2732,-244,15900,-68,83,-31
32212932,-2872,-228,15952,-88,175,-63
32216339,-2728,-220,15820,-89,64,-53
32219611,-2816,-220,15980,-113,190,-73
32223081,-2900,-268,16056,-79,50,-60
32226378,-2764,-212,15952,-73,163,-66
32229761,-2784,-220,16016,-107,111,-82
32233231,-2696,-220,16012,-84,127,-73
32236614,-2772,-244,15952,-107,157,-67
32240109,-2792,-104,15900,-84,72,-63
32243381,-2748,-348,15972,-126,137,-49
32246851,-2772,-268,15976,-78,51,-85
32250147,-2848,-288,15928,-82,173,-55
32253530,-2760,-156,15892,-105,54,-83
32256914,-2684,-208,15872,-55,143,-28
32260297,-2796,-192,15864,-117,34,-76
32263684,-2748,-248,16008,-64,100,-51
32267111,-2780,-88,15976,-122,80,-42
32270395,-2748,-172,15900,-54,123,-84
32273743,-2804,-220,15948,-88,170,-71
32277127,-2844,-204,16008,-82,81,-66
32280423,-2840,-288,16072,-85,170,-78
32283806,-2768,-148,15876,-126,67,-53
32287189,-2784,-224,15948,-93,185,-44
32290597,-2788,-256,16040,-111,73,-77
32293956,-2740,-276,16056,-55,153,-58
32297339,-2736,-240,15868,-114,123,-75
32300809,-2812,-176,16008,-70,101,-54
32304193,-2820,-196,15960,-125,92,-81
32307576,-2728,-280,16092,-72,76,-66
32310872,-2796,-200,15936,-106,134,-100
32314454,-2672,-220,15916,-106,74,-64
32317812,-2812,-244,15960,-96,150,-38
32321195,-2848,-204,15960,-86,68,-58
32324492,-2848,-144,16016,-60,183,-50
32327875,-2772,-148,15984,-111,69,-70
32331258,-2816,-264,15896,-49,148,-47
32334642,-2920,-208,15924,-98,71,-71
32337938,-2812,-256,16072,-81,136,-46
32341346,-2904,-228,15892,-124,148,-53
32344791,-2848,-176,16076,-62,80,-54
32348088,-2844,-84,15964,-89,161,-54
32351385,-2748,-200,15864,-80,77,-54
32354681,-2776,-120,16016,-104,158,-70
32358151,-2764,-248,15776,-115,61,-70
32361534,-2808,-164,15816,-61,149,-58
32364965,-2764,-284,15980,-106,89,-83
32368301,-2768,-224,15996,-64,136,-64
32371719,-2780,-188,15932,-129,88,-93
32375067,-2748,-156,16164,-62,66,-37
32378364,-2812,-268,15912,-113,116,-81
32381834,-2828,-180,15940,-63,135,-40
32385217,-2936,-232,16036,-121,153,-80
32388690,-2736,-256,15864,-81,69,-53
32392008,-2804,-256,16012,-105,201,-67
32395454,-2780,-228,15868,-93,44,-37
32398750,-2796,-220,16144,-69,191,-64
32402133,-2784,-300,15896,-121,79,-47
32405516,-2672,-212,15872,-85,160,-49
32408900,-2724,-268,15884,-108,130,-54
32412370,-2728,-156,15936,-80,112,-41
32415777,-2804,-228,15860,-113,146,-94
32419223,-2804,-252,16040,-77,64,-70
32422519,-2820,-164,15840,-93,158,-71
32425903,-2784,-160,16012,-89,58,-77
32429199,-2736,-192,15788,-109,179,-62
32432669,-2844,-108,15988,-91,31,-67
32435966,-2848,-220,16044,-71,169,-50
32439374,-2772,-244,15860,-115,49,-92
32442732,-2748,-264,15928,-73,112,-62
32446115,-2792,-204,15892,-131,72,-46
32449499,-2764,-120,15924,-66,130,-55
32452882,-2800,-184,16000,-126,154,-63
32456352,-2872,-264,16008,-89,92,-54
32459648,-2804,-208,15864,-75,159,-83
32463032,-2828,-264,16072,-74,57,-59
32466375,-2820,-220,15956,-100,197,-69
32469798,-2740,-216,15828,-101,76,-62
32473216,-2800,-200,16004,-68,166,-32
32476565,-2844,-192,15936,-96,82,-70
32479861,-2816,-164,15940,-70,101,-61
32483244,-2756,-24,15956,-97,94,-81
32486454,-2828,-256,16084,-82,72,-92
32489775,-2712,-268,16008,-130,147,-57
32493221,-2776,-268,15952,-88,86,-65
32496517,-2888,-168,16088,-76,177,-45
32499900,-2872,-208,15812,-64,40,-44
32503197,-2820,-168,16068,-128,159,-55
32506667,-2764,-156,15968,-119,54,-49
32510050,-2772,-168,15964,-61,187,-65
32513433,-2816,-260,16016,-120,100,-71
32516928,-2812,-304,15876,-56,128,-39
32520287,-2780,-220,15920,-122,153,-66
32523757,-2764,-148,15852,-94,77,-42
32527053,-2916,-160,15992,-108,130,-63
32530523,-2936,-228,15920,-91,62,-72
32533820,-2916,-220,15964,-85,182,-74
32537203,-2788,-284,15632,-110,59,-70
32540611,-2696,-228,15960,-62,161,-35
32543969,-2772,-188,16048,-91,31,-74
32547266,-2808,-164,15956,-57,105,-42
32550649,-2852,-268,15924,-113,73,-91
32554032,-2780,-180,16116,-92,122,-72
32557416,-2784,-172,15948,-135,142,-48
32560886,-2760,-152,15920,-71,120,-48
32564328,-2780,-252,15832,-106,163,-75
32567739,-2720,-248,15916,-76,75,-46
32571036,-2820,-156,15916,-75,186,-52
32574454,-2812,-252,16112,-102,68,-70
32577802,-2748,-196,15984,-71,188,-62
32581185,-2892,-108,16024,-120,92,-98
32584568,-2764,-144,15876,-58,120,-57
32587952,-2760,-268,15964,-120,154,-54
32591446,-2796,-100,15912,-83,60,-55
32594718,-2712,-264,15960,-121,139,-97
32598188,-2796,-324,15860,-106,41,-58
32601572,-2804,-164,16012,-98,187,-88
32604955,-2748,-224,15964,-99,85,-58
32608251,-2864,-316,15980,-58,184,-66
32611634,-2644,-228,16064,-100,32,-55
32615042,-2888,-176,15836,-48,133,-55
32618401,-2852,-168,15980,-104,83,-76
32621784,-2744,-180,15864,-62,140,-69
32625168,-2824,-220,15932,-118,141,-78
32628637,-2756,-352,15776,-68,75,-55
32631934,-2740,-208,15968,-82,178,-28
32635317,-2824,-216,15932,-89,44,-64
32638617,-2764,-204,15932,-87,187,-39
32642021,-2800,-288,15824,-115,69,-89
32645380,-2800,-200,15936,-71,145,-70
32648763,-2764,-264,15884,-116,105,-55
32652233,-2816,-132,15968,-52,105,-66
32655617,-2676,-204,16004,-141,161,-43
32659087,-2752,-196,15924,-94,43,-40
32662383,-2820,-264,15956,-135,194,-43
32665900,-3012,-276,15968,-117,57,-77
32669237,-2840,-156,15920,-58,149,-53
32672620,-2692,-244,15968,-106,117,-67
32676125,-2796,-268,15920,-67,91,-67
32679386,-2780,-232,16044,-112,116,-76
32682856,-2768,-108,15968,-59,55,-58
32686153,-2712,-224,16044,-127,142,-86
32689647,-2812,-192,15944,-60,35,-45
32692919,-2768,-204,15904,-66,190,-68
32696303,-2892,-216,15912,-70,54,-75
32699599,-2868,-264,15924,-63,135,-56
32702982,-2756,-104,15908,-116,82,-80
32706365,-2812,-308,15996,-66,143,-50
32709749,-2832,-192,15940,-113,117,-46
32713219,-2804,-160,16076,-68,124,-65
32716627,-2760,-192,15952,-101,181,-65
32720072,-2672,-228,15992,-93,72,-68
32723368,-2716,-280,15896,-64,149,-42
32726752,-2760,-200,15832,-92,56,-70
32730048,-2888,-276,15984,-88,211,-61
32733432,-2820,-200,15852,-108,83,-79
32736815,-2816,-192,16036,-76,136,-45
32740222,-2844,-132,16024,-115,47,-71
32743581,-2868,-216,15976,-71,67,-56
32746878,-2764,-220,15984,-122,165,-63
32750348,-2912,-192,15936,-98,56,-76
32753644,-2840,-160,15916,-100,181,-63
32757114,-2804,-232,16004,-80,68,-55
32760411,-2804,-228,15964,-68,169,-45
32763797,-2736,-124,15816,-80,53,-60
32767138,-2756,-228,16076,-61,106,-40
32770474,-2772,-268,15948,-109,82,-63
32773857,-2800,-192,16072,-58,142,-65
32777275,-2852,-328,15940,-111,138,-82
32780710,-2904,-148,15968,-94,82,-51
32784007,-2856,-188,15796,-77,106,-86
32787390,-2788,-324,15924,-93,46,-48
32790711,-2836,-248,16056,-137,169,-74
32794156,-2816,-232,15908,-86,47,-68
32797453,-2736,-228,16048,-55,193,-65
32800836,-2908,-244,15952,-101,60,-75
32804220,-2856,-204,15956,-63,160,-45
32807603,-2848,-272,15992,-116,61,-56
32810986,-2776,-172,16048,-88,129,-69
32814394,-2796,-212,16044,-105,95,-61
32817752,-2860,-288,15988,-58,119,-53
32821136,-2816,-184,16028,-86,164,-65
32824519,-2764,-196,16020,-70,65,-48
32827816,-2832,-112,16044,-121,149,-94
32831285,-2808,-232,15988,-108,47,-63
32834669,-2868,-100,15924,-101,190,-40
32838139,-2824,-176,16008,-109,70,-53
32841547,-2728,-228,16016,-69,161,-35
32844905,-2828,-284,15968,-127,141,-71
32848375,-2736,-308,15808,-67,88,-68
32851672,-2812,-240,16008,-119,124,-105
32855229,-2792,-156,15980,-108,47,-56
32858612,-2828,-192,15976,-81,179,-42
32861995,-2744,-268,15984,-77,35,-62
32865339,-2848,-268,16004,-67,194,-74
32868675,-2768,-272,15948,-131,68,-74
32872058,-2828,-236,16020,-53,149,-45
32875441,-2828,-160,15876,-114,64,-62
32878859,-2888,-248,15844,-73,120,-79
32882208,-2800,-164,15936,-113,108,-78
32885678,-2796,-160,15988,-85,78,-30
32888978,-2796,-200,16060,-126,170,-95
32892469,-2784,-260,16096,-70,84,-66
32895741,-2704,-164,15896,-86,177,-48
32899124,-2864,-236,16056,-85,61,-52
32902420,-2820,-172,15980,-82,179,-55
32905804,-2796,-204,15996,-115,82,-62
32909187,-2852,-220,15936,-58,147,-45
32912570,-2772,-196,15976,-147,123,-89
32916065,-2872,-288,15884,-82,88,-82
32919337,-2684,-252,15848,-121,107,-68
32922807,-2888,-156,15952,-91,68,-68
32926103,-2772,-212,16088,-73,174,-58
32929486,-2820,-164,15860,-93,48,-79
32932783,-2744,-176,15944,-78,156,-40
32936166,-2772,-176,16064,-77,64,-78
32939487,-2736,-172,15828,-64,159,-53
32942846,-2816,-120,15976,-110,72,-94
32946229,-2724,-204,15748,-42,132,-31
32949613,-2772,-244,15936,-136,98,-75
32952996,-2792,-244,15904,-54,91,-31
32956292,-2800,-184,16076,-103,159,-73
32959762,-2788,-144,15920,-54,82,-59
32963059,-2860,-312,16012,-120,156,-68
32966577,-2752,-164,16048,-63,42,-59
32969825,-2804,-268,15884,-91,195,-68
32973208,-2704,-232,15908,-107,80,-83
32976592,-2800,-172,15908,-65,145,-50
32980010,-2792,-276,16008,-81,52,-55
32983272,-2920,-220,15916,-86,84,-54
32986568,-2824,-204,16144,-113,122,-107
32990149,-2820,-152,15988,-74,60,-58
32993421,-2912,-188,15940,-111,146,-82
32996891,-2688,-228,15932,-94,78,-53
33000188,-2780,-216,15984,-85,176,-73
33003571,-2804,-220,16004,-90,52,-70
33006868,-2824,-48,15832,-75,166,-60
33010164,-2740,-296,16024,-81,85,-52
33013461,-2712,-216,15804,-77,179,-38
33016868,-2856,-256,15996,-109,69,-63
33020227,-2828,-268,15952,-61,108,-59
33023610,-2836,-256,16060,-123,80,-84
33026993,-2732,-208,15992,-70,55,-10
33030290,-2760,-284,16020,-122,141,-80
33033760,-2840,-256,16140,-66,103,-52
33037143,-2884,-120,16032,-105,168,-23
33040638,-2700,-212,15912,-69,82,-84
33043910,-2720,-252,16036,-76,144,-63
33047293,-2776,-284,15968,-94,58,-54
33050590,-2816,-212,16024,-73,168,-61
33053973,-2816,-232,16084,-115,99,-82
33057356,-2812,-216,15784,-80,108,-71
33060739,-2708,-204,16028,-136,119,-72
33064310,-2824,-200,16044,-96,57,-78
33067506,-2764,-192,16008,-115,211,-76
33070976,-2728,-248,16040,-100,58,-75
33074359,-2832,-224,16112,-75,166,-41
33077742,-2860,-228,16024,-112,66,-96
33081164,-2732,-172,15956,-55,170,-57
33084509,-2844,-192,15944,-108,46,-60
33087892,-2688,-176,15964,-56,118,-44
33091300,-2880,-180,16016,-109,48,-51
33094658,-2872,-200,16000,-76,63,-54
33097955,-2776,-248,15884,-110,134,-73
33101425,-2868,-256,15996,-88,86,-43
33104722,-2848,-200,15964,-108,182,-73
33108191,-2824,-224,16028,-103,79,-64
33111575,-2772,-272,15896,-66,187,-64
33114983,-2764,-252,15928,-89,49,-82
33118255,-2860,-248,16108,-78,184,-47
33121638,-2788,-256,16064,-95,73,-90
33124934,-2856,-220,16052,-51,157,-49
33128317,-2784,-268,16052,-106,55,-77
33131701,-2760,-256,16088,-83,114,-32
33135084,-2820,-276,16084,-100,96,-75
33138471,-2868,-128,15976,-76,68,-26
33141788,-2780,-288,15988,-133,141,-62
33145234,-2888,-244,16016,-62,100,-68
33148617,-2596,-288,16044,-98,180,-84
33152000,-2760,-216,15988,-76,51,-45
33155297,-2860,-172,15932,-107,152,-80
33158767,-2784,-272,16004,-91,61,-84
33162063,-2856,-280,15940,-82,169,-48
33165494,-2868,-248,16020,-110,107,-68
33168917,-2780,-188,16072,-82,107,-64
33172300,-2772,-132,15972,-101,159,-54
33175770,-2804,-200,15968,-94,80,-51
33179066,-2836,-212,16000,-124,129,-65
33182571,-2800,-136,15964,-97,51,-72
33185833,-2804,-200,15852,-124,194,-47
33189327,-2888,-260,15896,-93,65,-70
33192599,-2788,-124,15988,-88,202,-69
33195982,-2832,-260,16156,-78,51,-68
33199279,-2816,-224,15840,-36,132,-56
33202662,-2828,-232,15832,-108,73,-40
33206045,-2784,-212,16032,-80,143,-66
33209429,-2736,-184,15952,-118,129,-78
33212899,-2808,-244,16004,-82,118,-66
33216306,-2812,-72,16000,-95,172,-33
33219579,-2708,-204,15884,-76,68,-105
33222962,-2852,-232,16036,-109,192,-41
33226432,-2804,-208,16052,-76,67,-67
33229728,-2840,-232,15912,-88,182,-56
33233112,-2724,-216,15868,-134,71,-68
33236495,-2788,-232,16012,-81,123,-46
33239903,-2716,-300,15976,-99,89,-68
33243175,-2856,-264,15808,-95,67,-57
33246471,-2808,-256,16032,-135,142,-76
33249941,-2812,-148,16016,-84,37,-66
33253238,-2808,-324,16048,-120,220,-55
33256707,-2760,-160,15992,-69,47,-44
33260004,-2704,-224,16064,-82,175,-60
33263387,-2740,-216,15880,-123,65,-73
33266818,-2924,-156,16024,-91,183,-71
33270154,-2844,-200,16036,-91,84,-63
33273450,-2776,-160,16016,-66,150,-70
33276833,-2788,-280,15924,-127,104,-69
33280304,-2740,-164,15784,-47,102,-45
33283722,-2900,-264,15988,-118,71,-102
33287157,-2844,-316,15960,-88,78,-59
33290478,-2788,-212,15860,-115,140,-86
33293923,-2768,-220,16068,-100,62,-76
33297306,-2900,-212,15992,-106,192,-46
33300777,-2872,-204,16020,-96,53,-71
33304073,-2808,-292,15928,-80,183,-58
33307456,-2812,-136,15928,-106,63,-66
33310839,-2832,-164,15872,-80,91,-46
33314161,-2792,-148,15912,-115,91,-62
33317519,-2700,-168,16008,-56,134,-56
33320902,-2900,-124,15888,-121,136,-43
33324373,-2852,-152,15904,-59,84,-76
33327669,-2740,-192,16040,-58,157,-75
33331052,-2716,-200,15968,-75,60,-55
33334349,-2784,-152,15904,-75,193,-76
33337732,-2936,-212,15984,-110,59,-71
33341140,-2828,-232,16048,-61,162,-51
33344498,-2764,-196,15920,-112,116,-64
33347968,-2744,-260,16024,-70,94,-33
33351265,-2740,-192,15976,-106,64,-77
33354648,-2824,-176,16012,-76,86,-50
33357945,-2804,-180,15888,-113,145,-72
33361415,-2760,-228,16132,-91,60,-73
33364758,-2828,-280,16008,-82,183,-79
33368095,-2696,-252,15848,-79,47,-53
33371391,-2812,-160,16056,-73,152,-80
33374774,-2732,-280,15980,-92,53,-58
33378071,-2760,-276,15916,-82,175,-58
33381454,-2804,-252,15892,-103,75,-74
33384872,-2788,-248,15876,-61,173,-46
33388220,-2764,-256,15984,-116,62,-69
33391628,-2736,-292,16028,-61,78,-39
33394900,-2744,-232,15896,-124,132,-65
33398370,-2852,-200,15940,-82,61,-71
33401667,-2804,-164,16020,-118,163,-48
33405137,-2812,-216,16044,-81,65,-61
33408433,-2776,-296,15984,-75,179,-57
33411816,-2780,-188,15992,-82,64,-84
33415138,-2856,-176,15972,-76,193,-68
33418496,-2748,-236,15996,-120,64,-61
33421879,-2812,-220,16032,-75,162,-59
33425263,-2708,-276,16048,-108,107,-59
33428733,-2720,-128,16168,-83,96,-73
33432029,-2724,-188,15836,-130,120,-74
33435499,-2676,-176,16000,-92,58,-53
33438799,-2796,-180,15916,-114,151,-75
33442290,-2784,-192,15968,-103,67,-49
33445649,-2760,-288,15980,-62,151,-55
33449032,-2828,-292,15936,-97,85,-67
33452329,-2752,-192,16036,-59,149,-69
33455712,-2788,-248,16052,-99,66,-58
33459009,-2844,-200,15920,-51,82,-80
33462305,-2740,-268,16080,-136,110,-85
33465822,-2776,-236,16000,-64,116,-65
33469158,-2784,-288,16024,-118,151,-60
33472628,-2712,-276,15956,-78,73,-60
33475925,-2836,-296,15944,-81,202,-62
33479308,-2852,-236,15808,-94,51,-68
33482604,-2828,-216,16132,-101,201,-64
33486110,-2732,-104,15944,-106,68,-87
33489482,-2688,-188,15972,-75,163,-93
33492841,-2856,-232,16052,-126,89,-71
33496224,-2788,-184,16040,-70,114,-66
33499607,-2812,-144,15900,-89,95,-50
33502904,-2720,-144,15860,-122,73,-55
33506287,-2848,-180,16008,-88,168,-74
33509670,-2732,-192,15988,-93,57,-74
33512967,-2720,-164,15904,-79,151,-61
33516375,-2788,-232,16032,-99,55,-59
33519647,-2896,-168,15880,-78,175,-38
33523030,-2736,-264,15960,-117,85,-76
33526413,-2880,-184,15960,-60,134,-50
33529796,-2780,-224,15948,-126,122,-63
33533266,-2812,-256,15872,-75,108,-66
33536650,-2856,-260,16052,-85,166,-76
33540058,-2820,-244,16068,-94,86,-77
33543329,-2856,-236,15952,-113,132,-45
33546799,-2760,-236,16036,-104,51,-69
33550183,-2748,-160,15916,-93,162,-47
33553566,-2788,-148,16036,-94,90,-80
33556863,-2816,-212,15784,-59,136,1
33560072,-2772,-244,15856,-95,43,-69
33563369,-2840,-116,16016,-57,185,-70
33566811,-2808,-168,15916,-142,103,-91
33570222,-2832,-200,15888,-56,118,-50
33573605,-2876,-236,15924,-126,169,-67
33577075,-2848,-208,15976,-72,47,-64
33580372,-2816,-204,15952,-79,183,-56
33583755,-2928,-152,15912,-104,52,-61
33587173,-2788,-164,15964,-78,188,-69
33590546,-2772,-220,15876,-104,83,-68
33593905,-2792,-84,16024,-58,131,-55
33597201,-2768,-204,15960,-96,69,-61
33600498,-2840,-192,16008,-65,88,-62
33603794,-2736,-284,15988,-92,94,-76
33607091,-2672,-244,15908,-76,110,-47
33610474,-2888,-192,16052,-113,169,-80
33613968,-2780,-144,16052,-92,84,-58
33617241,-2848,-204,15980,-65,179,-64
33620624,-2816,-212,16028,-88,48,-58
33623920,-2848,-212,15796,-97,197,-61
33627303,-2832,-228,16080,-91,53,-78
33630600,-2764,-200,16112,-86,152,-64
33633983,-2900,-220,15920,-90,48,-57
33637280,-2892,-176,15916,-61,87,-50
33640601,-2768,-176,16076,-127,101,-69
33644046,-2824,-188,15820,-55,97,-45
33647343,-2888,-260,16024,-121,147,-83
33650813,-2780,-172,15876,-82,101,-66
33654196,-2728,-260,15976,-104,168,-69
33657666,-2896,-204,16024,-90,57,-84
