Time,Accel_X,Accel_Y,Accel_Z,Gyro_X,Gyro_Y,Gyro_Z
275726844,-3896,676,15668,19,-51,93
275730019,-3684,-1328,16488,-35,-72,-156
275733663,-2012,1380,15508,-240,187,-305
275737306,-3224,940,15804,-97,-36,-124
275740776,-2948,468,15552,-175,317,-96
275744246,-2852,2240,15232,-43,120,123
275747764,-3516,-1488,16744,107,42,222
275751186,-3996,-52,16344,-114,356,-61
275754656,-2540,1184,16020,-215,19,-406
275758213,-2792,1188,15620,-34,-7,-44
275761596,-3008,1956,14920,0,-118,17
275764893,-3368,456,16184,256,-176,245
275768363,-3476,12,15972,-245,339,-127
275771836,-2648,-756,16348,-156,94,-405
275775414,-2448,1384,15680,-241,348,-146
275779033,-2784,744,15944,-209,265,-300
275782590,-3268,772,15272,-55,136,-186
275786060,-3704,2052,15468,54,14,364
275789356,-3932,-1820,17044,-172,174,-335
275793086,-3788,860,15736,-80,53,-22
275796383,-2892,168,16052,-135,-6,-341
275799877,-2080,1920,15488,-135,15,-218
275803410,-3184,1524,15232,-96,103,225
275806880,-3564,-388,15904,-8,286,8
275810089,-4156,816,16136,-93,305,97
275813386,-2916,164,16084,-249,407,-376
275816943,-2888,1096,15448,-151,107,-264
275820586,-3596,2116,15668,-77,-54,-64
275824079,-3492,-344,15836,62,-69,130
275827474,-3900,768,15600,45,-81,57
275830649,-3588,-1548,16552,-77,-20,-189
275834293,-2132,1544,15420,-177,67,-324
275837849,-3172,928,15888,-46,101,-44
275841233,-3188,384,15596,31,145,52
275844442,-4136,776,16148,42,143,198
275847787,-3356,-1316,16768,-212,289,-216
275851469,-3084,636,15472,-41,238,-40
275854852,-2444,1136,15972,-255,46,-314
275858409,-3348,396,15460,-38,-171,-12
275861879,-3060,1780,15168,32,17,28
275865089,-3576,-1320,16592,3,-160,-93
275868559,-3336,256,15716,-190,391,-113
275872140,-2800,560,15828,-129,-15,-215
275875672,-2556,1540,15588,-242,305,-145
275879316,-2980,2112,15500,-146,295,-192
275882959,-3480,64,15792,-2,40,179
275886082,-4040,752,15964,3,286,82
275889205,-2728,52,16400,-142,46,-276
275892588,-2732,1308,15316,-110,19,-142
275896145,-2884,1732,15196,10,-139,-4
275899553,-3024,868,15904,184,-204,160
275902999,-3504,412,15704,-189,310,-18
275906469,-3020,-1228,16768,-118,103,-289
275910199,-2772,1340,15868,-196,448,-19
275913756,-2980,736,15988,-197,237,-313
275917312,-3164,680,15440,-40,90,-177
275920696,-3584,2388,15604,-9,14,214
275924015,-4060,-1904,16904,-36,51,-165
275927584,-3928,408,15884,-55,181,-32
275930932,-2828,208,16240,-163,-92,-315
275934489,-2304,1416,15616,-101,124,-184
275938132,-3084,1812,15308,-164,79,-136
275941689,-3204,240,15604,88,194,125
275944986,-4228,340,16376,-149,303,35
275948418,-3216,-1288,16448,-176,287,-273
275952099,-3020,692,15400,-49,328,-45
275955482,-2528,1224,15916,-209,-47,-276
275959126,-3408,328,15444,14,-48,-25
275962422,-3156,1668,15024,26,-80,99
275965719,-3592,-1348,16700,-31,1,-143
275969189,-3304,252,15864,-266,380,-161
275972770,-2892,680,15804,-101,-13,-181
275976302,-2468,1584,15560,-240,359,-168
275979946,-2900,2052,15364,-128,178,-170
275983589,-3544,-196,16004,17,181,156
275986973,-4032,556,16148,16,135,230
275990269,-3700,-1700,16888,-153,74,-320
275993912,-2724,1420,15376,-120,136,-115
275997581,-2916,772,15892,-132,-133,-236
276001200,-2364,1704,15708,17,-44,-52
276004583,-3132,1304,15296,-161,132,196
276008140,-3560,-968,16424,30,258,-21
276011523,-4020,352,16260,-230,387,-66
276014993,-2728,1292,15928,-266,336,-393
276018636,-2952,1180,15140,-53,94,-102
276022130,-2940,1952,15868,-94,-72,-26
276025576,-3792,-700,16032,104,9,122
276028908,-3844,392,15984,50,-24,114
276032169,-3108,-1152,16404,-140,28,-326
276035813,-2260,1692,15552,-310,321,-304
276039456,-3476,1188,15780,-141,64,18
276042840,-3556,-412,16048,-54,215,3
276046136,-3636,1540,15696,0,115,217
276049535,-3032,-1016,16608,-242,396,-339
276053163,-3736,140,15948,-113,234,-129
276056720,-2708,1736,15976,-277,67,-482
276060276,-2928,1416,15560,50,-142,69
276063660,-3420,1428,14900,-66,-122,-79
276067216,-3692,-448,16532,162,-106,67
276070686,-3136,172,15928,-119,202,143
276074181,-2504,-452,15960,-169,113,-423
276077800,-2204,1876,15360,-355,418,-196
276081443,-2764,1692,15864,-82,216,-16
276084913,-3012,892,15308,-38,105,-13
276088297,-3664,1728,15744,51,95,263
276091593,-3488,-1496,16772,18,75,-37
276094976,-3236,848,15928,-181,56,-183
276098471,-3020,1064,15676,-53,-23,-146
276102003,-2568,1532,15848,17,-132,-45
276105473,-3152,1024,15196,-175,232,219
276109030,-3464,-1328,16904,-11,320,-124
276112673,-3524,848,16196,-60,221,148
276116057,-2816,-616,16220,-217,396,-358
276119700,-3340,400,15732,-137,202,-271
276123280,-2968,2324,15800,-40,29,76
276126553,-4032,-1236,16280,72,-114,149
276130149,-3708,940,15368,72,4,67
276133146,-3196,-900,16424,-192,29,-314
276136703,-2472,900,15680,-258,223,-309
276140260,-3460,1312,15684,-139,181,43
276143730,-2456,1468,15252,-54,163,49
276147162,-3900,936,15776,28,259,189
276150410,-2996,-724,16280,-55,319,-57
276153880,-3420,164,15768,-118,178,-168
276157436,-2836,2032,15796,-249,100,-438
276161080,-2900,1256,15540,72,-205,103
276164550,-3036,1624,15512,-13,-94,-32
276168020,-3704,-788,16292,99,-164,48
276171407,-2864,328,15700,-158,259,80
276174811,-2356,108,15644,-180,110,-391
276178343,-2508,1480,15320,-289,276,-147
276181987,-2704,1880,15796,-107,284,-20
276185543,-3092,968,15296,-12,5,36
276188666,-3968,1248,15888,36,194,225
276192050,-3044,-828,16720,-279,55,-480
276195606,-3152,1084,15532,-153,-26,-140
276199274,-2960,1340,15644,-148,61,-289
276202807,-2628,1608,15840,76,-270,45
276206190,-3384,732,15716,-133,151,191
276209660,-3640,-1600,16788,-142,239,-224
276213390,-4148,736,16300,-43,245,80
276216687,-2908,-144,16080,-277,355,-367
276220330,-2940,1116,15284,-125,119,-228
276223997,-3068,2384,15844,-32,66,146
276227357,-3352,632,15576,101,-135,168
276230862,-3796,752,15876,51,50,25
276233950,-3032,-600,16304,-219,-63,-319
276237593,-2492,816,15712,-244,182,-339
276241150,-3312,1852,15296,-120,87,-234
276244707,-2868,912,15376,19,72,107
276247965,-3924,1056,16068,-24,335,162
276251386,-3604,-1320,16668,-153,251,-115
276255117,-3472,456,15936,9,204,77
276258240,-2684,248,16112,-242,54,-380
276261710,-3004,968,15560,57,-162,140
276265093,-3636,1068,15452,23,-85,10
276268390,-3856,-1212,16772,12,-82,-3
276271776,-2564,720,15648,-263,274,-350
276275354,-2424,432,15600,-95,53,-293
276278713,-2528,1192,15252,-68,106,19
276282096,-3664,1712,15688,-66,191,52
276285479,-3908,-1040,16528,-6,176,119
276288949,-3524,-120,16120,-28,217,135
276292419,-2692,196,16284,-294,93,-471
276295889,-3076,720,15512,-73,-120,-40
276299384,-2940,1528,15652,-81,13,-148
276302829,-3824,-752,16616,154,-244,131
276306386,-3548,180,15740,-175,317,50
276309769,-2292,76,15608,-186,27,-391
276313153,-2868,1116,15796,-255,313,-125
276316796,-2712,1928,15712,-228,401,-348
276320440,-3128,964,15448,14,-42,66
276323673,-3960,1276,15516,20,272,227
276327033,-4096,-1932,16992,-47,-15,-140
276330679,-3160,680,15900,-143,110,-188
276334268,-2972,-108,16076,-203,-21,-367
276337876,-2808,1408,15676,-165,54,-243
276341433,-3448,1636,15384,-222,213,158
276344990,-2960,508,15460,6,119,66
276348161,-4012,692,16320,-74,357,106
276351496,-2704,-12,16044,-271,280,-380
276355053,-3068,724,15548,-44,195,-234
276358523,-3180,2276,15752,-61,-18,106
276361993,-3304,788,15540,125,-184,193
276365463,-3756,640,15536,-4,103,48
276368672,-3196,-656,16360,-16,-165,-147
276372341,-2060,1192,15556,-270,285,-330
276375959,-2892,732,15768,-91,-64,-177
276379430,-2640,952,15424,35,183,56
276382639,-3812,1348,15740,-87,205,85
276386023,-3816,-1348,16692,-38,251,-3
276389492,-3280,288,15964,-208,245,-331
276393049,-2540,708,16084,-234,-14,-373
276396610,-3124,708,15708,-28,25,-52
276399927,-3064,1792,15312,-31,-91,-25
276403373,-3768,-1128,16840,75,-114,10
276406843,-3544,0,15860,-268,333,-4
276410052,-2276,516,15360,-78,38,-298
276413436,-2440,1316,15492,-59,88,-7
276416732,-2584,2072,15636,-102,209,1
276420115,-3940,-976,16464,-25,187,97
276423522,-3288,96,16208,0,185,158
276426622,-2604,2200,15708,-315,119,-444
276430265,-3068,940,15584,72,-200,102
276433648,-3036,1396,15656,-106,43,-142
276437240,-3828,-496,16736,178,-283,167
276440762,-3328,448,15544,-193,311,66
276444145,-2316,-36,15644,-159,-46,-384
276447751,-3016,932,16068,-314,384,-226
276451258,-2680,2016,15632,-108,251,7
276454642,-3108,864,15260,30,-70,86
276457852,-3792,1660,15664,34,230,254
276461235,-3284,-1164,16872,-265,61,-444
276464878,-3232,812,15724,-109,66,-144
276468348,-3052,1184,15620,-188,12,-358
276471930,-2432,1688,15832,100,-245,54
276475375,-3152,932,15508,-163,247,197
276478845,-3640,-1584,16900,-34,149,-151
276482489,-3960,1204,15952,-22,320,151
276485959,-3140,-844,16168,-228,290,-355
276489602,-3280,336,15872,-174,217,-351
276493159,-3120,2476,15660,9,40,207
276496372,-4008,-1636,16492,105,-192,95
276499950,-3720,1380,15416,62,83,112
276503222,-3192,-1120,16540,-4,-127,-36
276506779,-2480,948,15572,-265,301,-351
276510335,-3440,1480,15716,-123,42,-274
276513892,-2728,1296,15180,-42,118,18
276517275,-3536,1544,15704,-65,257,30
276520659,-3836,-1012,16676,-9,139,107
276524152,-3480,-112,16120,8,298,124
276527425,-2740,288,16284,-299,-23,-418
276530982,-3008,892,15448,80,-88,86
276534191,-3496,1676,15124,-80,-52,-91
276537697,-3812,-700,16372,144,-146,153
276541218,-3052,332,15684,-173,363,46
276544601,-2340,236,15916,-178,3,-383
276548045,-2720,1228,15424,-203,412,-123
276551628,-2584,1736,15688,-199,190,-141
276555272,-2768,1604,15268,67,-41,92
276558568,-4152,716,15896,15,191,263
276561865,-2980,-488,16416,-266,95,-460
276565422,-3168,896,15724,-76,34,-68
276568718,-3076,1348,15820,-126,-86,-189
276572386,-2464,1700,15716,122,-151,65
276575832,-3400,668,15460,-165,194,154
276579301,-3408,-1400,16640,-38,291,-175
276582945,-3524,664,16068,-62,256,137
276586328,-2688,-280,15888,-248,330,-412
276589972,-2780,1188,15024,-144,250,-235
276593615,-3040,2412,15976,-31,-57,115
276597110,-3324,476,15568,112,-91,147
276600469,-3728,1168,15100,62,-30,66
276603765,-3256,-888,16488,-173,61,-356
276607322,-2400,884,15764,-303,243,-329
276610879,-3544,1424,15592,-109,-1,-257
276614435,-2600,1188,15332,-4,162,74
276617732,-3916,992,16144,8,192,194
276620941,-2800,-596,16124,-118,356,-51
276624522,-3516,268,15904,-94,152,-164
276627968,-2808,2156,15924,-266,127,-409
276631612,-3144,1068,15444,81,-234,147
276635082,-3132,1600,15504,-20,-56,-33
276638587,-3812,-992,16848,62,-184,32
276641935,-2616,428,15572,-203,275,14
276645318,-2096,188,15556,-138,45,-387
276648837,-2412,1492,15580,-312,343,-195
276652432,-2736,2140,15516,-84,270,38
276655815,-3908,-1096,16164,39,-45,113
276659285,-3948,1384,15856,62,200,212
276662668,-3068,-936,16568,-93,63,-133
276666138,-3256,924,15568,-109,48,-178
276669608,-3008,1380,15756,-141,-15,-367
276673276,-2432,1700,15732,83,-246,38
276676635,-3144,792,15292,-133,213,221
276680105,-3672,-1392,17132,-44,127,-192
276683749,-3192,828,16224,-46,304,130
276687132,-2956,-356,16168,-312,362,-398
276690775,-2924,1232,15208,-93,150,-278
276694332,-3076,2376,15784,-40,42,116
276697740,-4064,-1428,16384,123,-210,153
276701359,-3664,844,15504,43,106,57
276704569,-2940,-564,16284,-45,-93,-141
276708125,-2352,900,15636,-227,260,-307
276711682,-3532,1704,15424,-178,84,-272
276715239,-2676,1108,15440,9,98,65
276718362,-3900,1092,15916,-58,300,200
276721835,-3868,-1428,16764,-102,187,-49
276725499,-3312,384,15952,10,301,105
276728772,-2812,-108,16276,-281,26,-422
276732329,-2968,1164,15384,91,-66,118
276735712,-3036,1776,15496,-8,-71,-24
276739130,-3964,-1132,16688,96,-110,8
276742478,-2892,608,15916,-199,315,17
276745862,-2280,-56,15712,-165,35,-375
276749380,-2464,1700,15320,-244,443,-199
276752975,-2728,1828,15772,-136,153,-16
276756532,-3820,-572,16380,26,29,89
276759742,-3884,1088,15708,-9,163,237
276763125,-2956,-724,16548,-284,125,-446
276766768,-3376,976,15396,-109,85,-113
276770238,-3028,1204,15860,-78,-151,-170
276773906,-2488,1716,15712,70,-98,75
276777178,-3268,904,15272,-207,170,85
276780562,-3476,-1156,16904,48,203,-135
276784118,-3444,588,16212,-314,363,-158
276787675,-2816,-248,16040,-282,326,-376
276791319,-2948,1120,15364,-47,234,-227
276794875,-3028,2348,15880,-62,-22,119
276798370,-4160,-1444,16588,163,-166,188
276801989,-3588,940,15264,6,33,70
276805025,-3108,-888,16264,-105,-14,-345
276808669,-2260,904,15388,-315,316,-354
276812225,-3588,1464,15556,-106,-90,-263
276815869,-2560,1312,15460,-35,230,10
276819252,-3808,1360,15676,-74,90,87
276822572,-3868,-1284,16740,-58,309,-12
276826105,-3588,472,15772,-74,239,114
276829488,-2960,-472,16468,-209,74,-382
276833045,-2880,1308,15404,15,-153,51
276836429,-3196,1780,15536,-6,-128,-13
276839933,-3676,-984,16780,58,-97,5
276843108,-2896,524,15644,-181,255,35
276846495,-2416,-60,15688,-153,52,-344
276850010,-2432,1592,15624,-326,352,-226
276853605,-2836,2020,15612,-94,220,34
276856988,-3812,-932,16360,18,74,83
276860198,-3736,416,16076,19,131,207
276863494,-3288,-1032,16756,-273,150,-384
276867225,-3288,748,15484,-156,16,-153
276870695,-3036,1384,15572,-32,-23,-84
276874189,-2532,1524,15812,69,-257,59
276877548,-3268,748,15468,-150,295,126
276881018,-2480,-560,15924,-57,242,-165
276884575,-3304,784,16216,-253,333,-150
276888132,-2696,-312,16092,-329,436,-375
276891780,-2904,1140,15316,28,-55,-32
276895158,-3056,2388,15672,-4,43,126
276898479,-4152,-1608,16368,-1,-60,28
276901838,-3380,684,15724,61,28,14
276904961,-3032,828,16088,-164,-40,-287
276908518,-2332,1568,15708,15,-106,-69
276911988,-3200,1312,15188,-164,180,128
276915545,-3656,-1120,16816,87,122,-21
276919015,-3900,1280,15992,-2,320,166
276922421,-2964,-1084,16044,-269,282,-367
276926128,-3332,212,16028,-89,245,-267
276929598,-2728,2432,15716,-80,-30,45
276932981,-3144,748,15528,107,-245,143
276936451,-3508,1388,15140,6,91,92
276939578,-3336,-1280,16616,-138,-97,-290
276943339,-2604,580,15700,-295,435,-357
276946911,-2252,356,15504,-142,5,-347
276950245,-2672,1392,15392,-26,174,24
276953628,-3572,1404,15656,-11,185,176
276957098,-3920,-1092,16484,-10,151,34
276960568,-3524,252,16080,-138,255,-172
276964125,-3012,-724,16588,-284,14,-466
276967681,-2804,1560,15356,-123,65,-149
276971238,-3156,1532,15556,-50,-132,-18
276974819,-2736,1228,16036,115,-227,108
276978352,-3324,648,15512,-222,312,100
276981822,-3556,-1516,17004,-70,157,-258
276985465,-2924,1108,16080,-300,475,-190
276989109,-2708,136,15892,-277,278,-344
276992665,-2968,972,15280,-67,98,-245
276996049,-3236,2480,15744,-42,39,212
276999456,-4204,-1840,16644,33,-1,-58
277002815,-3688,1372,15240,22,89,89
277006025,-3248,-1264,16432,-162,-63,-355
277009755,-2076,1136,15784,-338,326,-511
277013398,-3624,1784,15140,-59,23,371
277016782,-3240,-160,15900,40,164,15
277020078,-3884,1384,16024,-68,245,147
277023572,-3140,-792,16132,-85,212,-58
277027018,-3076,720,15772,-180,228,-297
277030575,-3108,2404,15800,-244,-38,-328
277034219,-3192,700,15536,116,-37,123
277037602,-3672,1112,15400,3,-127,2
277040811,-3836,-1316,16724,38,-45,-43
277044317,-2460,1016,15656,-311,252,-351
277048027,-2752,640,15508,-61,-8,-219
277051308,-2664,1152,15340,-25,115,34
277054691,-2816,2100,15344,-28,141,109
277058162,-3760,-1476,16592,-116,310,-33
277061805,-3980,908,16040,-11,168,104
277065188,-2876,-160,16532,-220,94,-399
277068745,-2852,1252,15368,-168,-41,-140
277072413,-3060,1740,15404,-116,-58,-277
277076032,-2980,868,16072,130,-228,156
277079502,-3180,1636,15092,-232,143,229
277083059,-3196,-1296,16664,-78,239,-289
277086702,-4000,408,16528,-175,298,-20
277090172,-2616,760,15900,-236,316,-294
277093729,-2960,940,15480,-65,130,-188
277097224,-3400,2352,15668,-144,-30,-127
277100843,-3588,-204,15804,104,-2,158
277104226,-3920,432,15780,63,-84,105
277107522,-3360,-1176,16512,-83,72,-215
277111079,-1968,1524,15700,-167,5,-255
277114549,-3368,1384,15568,-77,92,-46
277117932,-3376,-40,15992,65,114,129
277121229,-4096,476,16320,1,230,164
277124462,-3320,-1272,16552,-233,342,-259
277128169,-3036,788,15564,-83,184,-85
277131552,-2628,1428,15992,-189,89,-220
277135109,-3400,128,15660,4,-194,-4
277138319,-3260,1552,15068,58,26,122
277141615,-3492,-1256,16732,-91,-158,-185
277145384,-3240,180,15624,-252,430,-195
277148950,-2948,1024,15660,-91,-35,-132
277152459,-2356,1660,15728,-174,201,-77
277156016,-3100,1960,15484,-152,311,-78
277159572,-3656,-424,15984,20,34,103
277162869,-3808,572,16108,-72,326,-49
277166252,-3584,-1524,16776,-208,24,-388
277169896,-2780,1464,15456,-38,-22,-61
277173390,-3160,992,15720,-101,-45,-206
277176922,-3404,336,16300,-1,-167,-70
277180306,-3160,1200,15040,-135,283,277
277183862,-2684,-872,16248,-239,94,-485
277187419,-3704,632,16320,-195,414,-49
277190889,-2804,1136,15692,-304,339,-401
277194532,-2840,1588,15284,-20,12,-81
277197940,-3736,1720,15676,-3,34,158
277201212,-3964,-1412,16200,24,-31,4
277204509,-3676,496,15872,-104,114,-121
277208066,-3184,-964,16456,-176,-60,-379
277211709,-2104,1796,15396,18,-20,-40
277215092,-3488,1460,15512,-121,108,72
277218562,-3616,-744,16404,29,230,29
277221882,-3876,396,16296,-66,303,167
277225242,-2872,-768,16164,-245,282,-352
277228885,-2852,1196,15500,-130,353,-218
277232529,-2956,2052,15740,-58,-83,-37
277235999,-2968,1196,15384,78,-129,116
277239469,-3600,1268,15052,22,-23,94
277242766,-3264,-1084,16600,77,-203,40
277246271,-2872,524,15624,-303,401,-299
277249841,-3456,1328,15648,-187,-17,-398
277253436,-2176,1752,15392,-52,251,-16
277256906,-2760,1876,15568,-117,196,-21
277260463,-3784,-520,16216,32,195,166
277263846,-3612,-192,16080,19,223,206
277267229,-3116,-344,16592,-299,61,-441
277270786,-2848,1068,15608,-90,78,-107
277274280,-3044,1608,15612,-111,-124,-118
277277986,-2588,1592,15656,148,-215,132
277281543,-3320,688,15332,-226,256,113
277285013,-3688,-1308,17064,-59,181,-243
277288656,-3108,940,16128,-101,365,106
277292126,-2824,16,15896,-247,247,-381
277295596,-2988,1168,15264,-76,181,-222
277299178,-3152,2436,15820,-51,5,158
277302450,-4088,-1528,16556,19,26,-28
277305833,-3864,712,15532,-10,98,73
277309043,-3020,-620,16380,-182,-58,-385
277312686,-2464,1768,15700,-242,275,-338
277316330,-3440,1672,15524,-176,68,165
277319800,-3000,864,15568,92,159,90
277323033,-4060,1036,16128,-43,251,152
277326479,-2876,-548,16180,-95,239,-106
277330036,-3332,440,15712,-143,255,-234
277333593,-2992,2100,15992,-232,-16,-371
277337236,-3076,932,15556,79,-62,118
277340533,-3684,916,15352,-1,-111,30
277343829,-3660,-1172,16660,63,-117,-14
277347453,-2476,740,15532,-216,393,-28
277350856,-2596,340,15696,-83,-42,-293
277354326,-2424,1380,15244,-312,443,-199
277357970,-2788,2104,15408,-38,107,95
277361353,-3780,-1236,16768,73,93,124
277364736,-3992,880,16016,-19,201,128
277368119,-2968,-324,16404,-250,132,-432
277371766,-2872,1176,15496,-143,-36,-167
277375431,-2912,1816,15240,-143,-83,-286
277379050,-2996,900,16024,134,-176,152
277382520,-3144,1700,15220,-217,122,163
277386077,-3048,-1252,16744,-67,257,-252
277389720,-4296,160,16588,-170,301,-21
277393190,-2656,776,15840,-255,334,-303
277396750,-3116,868,15596,-98,168,-245
277400241,-3420,2564,15736,-187,-21,-187
277403860,-3584,32,15736,130,-42,214
277407157,-3972,520,15648,11,-47,94
277410366,-3456,-1228,16620,-54,-71,-211
277414010,-2160,1380,15472,-225,128,-307
277417654,-2980,1168,15688,-79,-15,-125
277421210,-3048,396,15704,-119,250,-51
277424705,-3284,1912,15348,-19,178,201
277428150,-3476,-1516,16616,71,142,137
277431620,-3776,304,16320,-95,232,-68
277435004,-2560,1060,16052,-176,55,-272
277438560,-2696,1480,15296,-52,-114,-43
277442117,-3040,1784,14876,-92,-116,-177
277445760,-3544,140,16368,187,-136,174
277449296,-3140,1024,15240,-170,141,210
277452787,-2580,-756,16416,-159,178,-471
277456431,-3876,672,16232,-252,383,-56
277459901,-2800,1096,15948,-188,313,-271
277463544,-2788,1688,15176,-54,68,-139
277467014,-3888,1740,15716,-7,-107,178
277470484,-3884,-1384,16312,50,83,-26
277473892,-3580,724,15712,-87,28,-62
277477164,-3256,-1164,16520,-119,-44,-319
277480894,-2188,1908,15480,-374,400,-355
277484538,-3392,1648,15552,-96,42,113
277487921,-3672,-984,16380,-9,176,73
277491217,-3584,1460,15768,-16,162,182
277494688,-3128,-1048,16352,-200,418,-275
277498442,-3496,128,16012,-151,251,-251
277501975,-2748,2012,15816,-265,21,-450
277505531,-2908,1140,15376,31,-104,109
277509001,-3432,1608,15044,-55,-123,-60
277512558,-3748,-712,16524,152,-106,79
277516028,-3428,212,15520,-211,299,83
277519411,-2236,132,15764,-115,11,-363
277522906,-2472,1428,15540,-313,451,-128
277526525,-2696,1812,15688,-117,194,-74
277530082,-3016,1120,15256,30,71,49
277533291,-3876,1320,15844,28,113,250
277536675,-3256,-1116,16824,-258,153,-453
277540405,-3100,1140,15460,-147,31,-133
277543962,-3132,-472,16376,-96,-108,-283
277547664,-2412,1676,15804,-219,286,-314
277551284,-3356,1808,15288,-176,62,176
277554719,-3628,-1292,16784,96,146,133
277558189,-4012,824,16384,-125,292,64
277561572,-2796,-180,16096,-247,375,-346
277565215,-3060,492,15724,-108,219,-229
277568772,-3116,2460,15904,-241,10,-337
277572353,-3200,796,15616,104,-83,205
277575712,-3664,728,15428,-1,-91,42
277578922,-3576,-1336,16892,11,-80,-106
277582479,-2396,1068,15704,-289,206,-333
277586122,-2704,600,15632,-88,-27,-227
277589592,-2552,1040,15220,-242,386,-113
277593236,-2752,1856,15192,-42,159,130
277596709,-3544,-1324,16700,55,96,119
277600113,-3976,632,15964,-37,211,58
277603385,-2808,112,16272,-237,112,-415
277606942,-2708,1516,15532,-138,-46,-141
277610586,-3100,1692,15364,-107,-98,-215
277614229,-3232,812,16100,134,-187,161
277617699,-3148,1592,15176,-151,132,246
277621256,-3084,-1248,16888,-161,238,-371
277625011,-3992,336,16156,-225,328,-88
277628456,-2864,1072,15864,-239,327,-364
277632100,-2832,1080,15304,-87,113,-195
277635656,-2816,2008,16004,-128,-63,-71
277639213,-3796,-628,15884,104,7,126
277642510,-3740,596,15680,17,-53,73
277645719,-3312,-1068,16476,-46,-82,-229
277649410,-1876,1532,15500,-359,440,-314
277653041,-3204,1536,15728,-36,-33,31
277656389,-3244,-224,16136,-113,249,7
277659773,-3264,1828,15712,3,102,187
277663069,-3080,-1396,16604,-227,405,-275
277666800,-3576,424,15848,-85,235,-135
277670270,-2568,1400,16020,-202,65,-402
277673851,-2764,1248,15588,-39,-98,-21
277677296,-3280,1788,14860,-90,-104,-123
277680940,-3684,-464,16584,168,-139,142
277684496,-3204,744,15460,-217,245,123
277687967,-2480,-328,16024,-130,99,-435
277691523,-3224,808,16432,-343,379,-149
277695080,-2684,1564,15788,-139,215,-104
277698748,-3064,1156,15148,38,98,7
277701847,-3656,1596,15720,-14,120,255
277705317,-3628,-1488,16916,56,31,-11
277708700,-3400,572,15628,-157,43,-129
277712170,-3172,952,15948,-124,-91,-315
277715727,-2304,1776,15640,-12,-132,-34
277719283,-3400,1104,15052,-91,29,181
277722691,-3692,-1364,16800,1,312,-104
277726137,-3616,680,16232,-46,213,161
277729520,-2820,-684,16264,-254,416,-370
277733163,-2988,1240,15292,-106,173,-216
277736807,-2984,2208,15940,-72,0,63
277740017,-3876,-1088,16208,56,-98,137
277743487,-3692,1072,15260,52,-7,56
277746700,-3096,-968,16380,-151,-42,-303
277750387,-2620,544,15792,-330,288,-386
277753932,-3320,1776,15480,-100,154,125
277757453,-2560,1160,15400,3,62,86
277760576,-3696,1420,15880,-7,266,163
277763960,-2812,-1008,16264,-89,243,2
277767343,-3508,336,15976,-91,213,-223
277770813,-2716,2052,15948,-114,17,-43
277774307,-3152,1224,15352,82,-227,98
277777666,-3320,1364,15036,36,54,65
277780876,-3316,-1140,16716,118,-232,84
277784433,-2760,300,15556,-308,435,-299
277787989,-3184,1452,15496,-186,7,-412
277791459,-2440,1488,15492,-29,149,13
277794843,-3524,1656,15588,-82,259,49
277798250,-3936,-1008,16580,-6,139,33
277801609,-3568,404,16092,-123,304,-163
277805166,-3080,-892,16652,-258,21,-440
277808723,-2832,1396,15480,43,-69,60
277812019,-3104,1684,15620,-70,-106,-86
277815576,-3728,-700,16612,167,-149,78
277819046,-3320,628,15456,-215,340,107
277822540,-2304,-244,15844,-167,30,-412
277826073,-3352,1028,16212,-280,506,-156
277829716,-2768,1524,15928,-232,273,-400
277833360,-2988,1432,15124,-4,85,11
277836569,-4052,1036,15692,35,105,258
277839953,-4068,-1984,16664,-75,84,-179
277843509,-2956,1136,15536,-157,51,-121
277847113,-3304,-648,16300,-106,-122,-300
277850796,-2356,1756,15652,-262,296,-381
277854475,-3724,1756,15516,-131,13,229
277857910,-2972,452,15528,35,160,72
277861119,-4012,944,16076,-79,255,126
277864503,-2840,-312,16128,-221,347,-376
277868146,-3052,604,15684,-135,237,-287
277871707,-3160,2556,15836,-236,-25,-327
277875371,-3276,552,15492,132,-83,184
277878730,-3852,840,15480,22,-123,46
277882026,-3792,-1416,16784,20,-73,-83
277885496,-2324,1080,15784,-240,343,-95
277889053,-2904,476,15640,-113,8,-235
277892436,-2624,1188,15228,-23,99,48
277895733,-2944,2048,15344,-39,154,151
277899227,-3756,-1364,16632,-137,331,-72
277902846,-3896,788,15940,-36,172,49
277906143,-2668,12,16300,-230,96,-381
277909526,-3124,1108,15444,-111,1,-111
277912996,-3140,1568,15272,15,-56,-1
277916293,-3780,-952,16796,17,-153,-12
277919763,-3424,124,15868,-192,296,18
277923170,-2488,380,15744,-174,29,-321
277926616,-2564,1396,15924,-271,267,-182
277930259,-2648,2148,15596,-61,259,88
277933643,-3284,656,15364,31,6,106
277936766,-4096,1048,16036,28,257,182
277940149,-3056,-552,16544,-270,23,-438
277943705,-2844,1136,15448,-128,9,-168
277947224,-3028,1656,15544,-58,-80,-42
277950646,-2924,1192,15888,130,-301,131
277954206,-3460,484,15752,-196,364,108
277957707,-3340,-1520,16828,-122,143,-299
277961403,-2776,1296,15972,-107,333,-13
277964959,-2768,212,16192,-262,295,-355
277968516,-2976,948,15520,-89,68,-220
277971924,-3320,2396,15660,-4,83,250
277975196,-4132,-1924,16740,126,-147,167
277978839,-3908,624,15704,-20,177,-15
277982223,-3092,-324,16284,-56,-148,-179
277985866,-2128,1332,15484,-230,227,-306
277989509,-3192,1012,15688,-83,-12,-104
277993066,-2884,460,15812,58,145,56
277996280,-4120,540,16180,-7,220,189
277999597,-3432,-1484,16832,-207,274,-240
278003303,-3080,772,15824,-49,327,-46
278006686,-2488,1148,16072,-230,-18,-301
278010330,-2772,1476,15564,2,-99,-15
278013626,-3132,1728,15064,0,-64,50
278016836,-3660,-1348,16568,7,-94,-123
278020306,-3292,32,15932,-259,497,-152
278023800,-2944,796,15780,-93,-45,-197
278027246,-2716,860,15336,-182,336,-121
278030803,-2828,2088,15384,-33,142,124
278034273,-3460,244,15796,73,75,191
278037482,-4044,592,16100,-109,244,16
278040866,-2744,328,16148,-211,43,-377
278044335,-2852,1532,15632,-109,-10,-84
278047993,-3104,1800,15204,-129,-107,-236
278051622,-3216,588,16080,185,-171,143
278055093,-3468,244,15720,-214,163,223
278058601,-2836,-1068,16636,-83,188,-356
278062206,-4040,292,16452,-249,379,-35
278065676,-2772,1016,15832,-173,281,-276
278069320,-2836,1188,15552,-45,107,-160
278072901,-3464,2344,15540,-145,-69,-84
278076433,-3800,-548,15956,160,-27,171
278079903,-3672,672,15884,44,4,78
278082939,-3056,132,16136,-62,-33,-209
278086409,-2200,1640,15416,-172,27,-247
278089966,-3264,1632,15352,-75,-10,3
278093263,-3356,-220,15948,15,240,58
278096563,-4128,512,16360,-88,303,37
278099880,-2688,392,16056,-211,411,-257
278103412,-2948,944,15548,-89,67,-233
278106796,-3428,2512,15732,-152,24,-183
278110352,-3448,-28,15864,116,-142,181
278113822,-4008,452,15656,40,-43,75
278117032,-3552,-1124,16568,-82,-87,-162
278120676,-2128,1360,15516,-194,156,-340
278124344,-3256,1088,15644,-78,26,-95
278127702,-3056,244,15780,-172,182,-57
278131172,-2824,2048,15392,32,230,178
278134555,-3352,-1436,16620,-201,274,-208
278138286,-3792,608,15964,-4,247,-22
278141582,-2716,796,16156,-245,29,-325
278145052,-2804,1468,15568,-28,-119,-31
278148656,-3140,1664,15172,-88,-19,-163
278152166,-3496,204,16296,164,-234,134
278155636,-3392,168,15696,-145,246,214
278159141,-2756,-988,16332,-171,78,-397
278162663,-2492,1756,15780,-266,357,-121
278166306,-2804,1276,15856,-197,261,-182
278169950,-2976,1204,15360,-35,-11,-93
278173444,-3664,2028,15584,33,164,292
278176803,-4040,-1192,16260,47,-74,70
278180186,-3652,536,15760,-80,161,-123
278183656,-3180,632,16128,-158,-48,-335
278187213,-2032,1800,15668,-25,-89,-105
278190770,-3572,1452,15848,-110,124,114
278194326,-3384,-804,16328,32,225,-54
278197734,-3552,1528,15712,29,231,211
278201093,-2936,-1228,16408,-268,318,-326
278204823,-3508,-120,16012,-113,294,-299
278208467,-2780,2380,15760,-298,104,-421
278212110,-3120,876,15600,133,-202,146
278215580,-3456,1664,14892,-68,21,-114
278219050,-3872,-696,16556,144,-239,127
278222631,-3476,100,15872,-160,364,47
278225990,-2364,192,15732,-166,-24,-347
278229547,-2388,1360,15360,-273,373,-132
278233190,-2636,1888,15716,-147,266,-75
278236747,-2992,1304,15164,83,-55,136
278240130,-4068,760,16056,-2,276,193
278243427,-3084,-656,16676,-107,33,-261
278247031,-2984,1036,15696,-113,67,-131
278250540,-3020,-164,16032,-197,-33,-346
278254184,-2624,1548,15688,159,-195,114
278257741,-3300,1772,15332,-183,186,192
278261332,-3504,-1372,16660,21,128,88
278264680,-4228,524,16264,-61,355,84
278267977,-2640,96,15928,-260,307,-374
278271451,-3040,672,15632,-77,175,-232
278274942,-3140,2460,15792,-19,-31,183
278278387,-3436,272,15668,164,-113,214
278281857,-3820,804,15536,-23,83,40
278285067,-2992,-568,16216,-104,-79,-313
278288710,-2224,1096,15692,-241,294,-318
278292354,-2860,792,15676,-155,-10,-220
278295911,-2848,816,15352,45,159,88
278299145,-4024,956,16280,-31,203,155
278302504,-3760,-1452,16888,-155,296,-119
278306234,-3204,580,15704,-33,300,29
278309530,-2816,224,16284,-263,-21,-350
278313087,-3200,984,15476,-51,-40,-99
278316470,-3020,2048,15128,1,-128,56
278319767,-3792,-1276,16576,42,-52,-33
278323261,-3500,20,15912,-243,368,-58
278326620,-2612,504,15832,-97,-5,-274
278330003,-2668,1200,15392,-267,366,-141
278333647,-2732,2148,15496,-55,125,100
278337117,-3996,-1312,16688,46,105,152
278340587,-3936,924,16160,-12,164,94
278343883,-2856,-260,16352,-238,136,-402
278347574,-2740,1232,15432,-140,-41,-123
278351170,-3152,276,16076,-113,-83,-256
278354727,-3032,1056,16136,125,-190,148
278358284,-3316,1744,15108,-190,90,224
278361789,-3056,-1260,16800,-103,248,-332
278365484,-4084,448,16392,-149,280,10
278368867,-2688,692,15804,-265,346,-337
278372449,-2964,1052,15536,-56,103,-171
278375981,-3460,2408,15748,-161,-23,-178
278379624,-3640,-32,15820,105,-27,182
278383008,-3848,588,15608,48,-113,57
278386304,-3420,-1132,16340,-57,18,-209
278389861,-2000,1408,15568,-311,337,-250
278393504,-3272,1160,15736,-79,54,-46
278396912,-3236,96,15752,-159,227,-66
278400271,-3116,1900,15584,67,135,205
278403654,-3444,-1408,16624,-295,394,-249
278407384,-3804,416,16220,-32,176,-50
278410768,-2564,1100,16084,-236,157,-428
278414411,-2704,1592,15436,-40,-186,-32
278417968,-3068,1332,15808,-51,-99,-121
278421528,-3716,-392,16644,132,-108,142
278425106,-3248,996,15056,-185,170,149
278428551,-2380,-680,15840,-144,132,-430
278432195,-3616,672,16408,-285,362,-127
278435752,-2544,1460,15948,-287,342,-419
278439395,-2944,1108,15248,-10,73,-67
278442778,-3832,1976,15680,-76,-50,68
278446162,-4056,-1220,16380,73,41,57
278449505,-3576,412,15928,-138,38,-145
278452928,-3012,-892,16360,-131,-9,-362
278456485,-2280,1764,15600,-36,-158,-33
278460042,-3520,1464,15532,-139,93,103
278463546,-3548,-740,16324,-19,219,60
278466895,-3656,1140,16028,-8,144,161
278470278,-2852,-756,16232,-280,412,-361
278473946,-3356,208,15744,-129,195,-216
278477478,-2948,2024,15920,-254,15,-416
278481035,-2964,1160,15380,62,-95,126
278484418,-3496,1276,15252,-18,-163,-44
278487975,-3824,-1056,16620,76,-67,37
278491363,-2844,512,15624,-294,273,-320
278494915,-2216,220,15704,-95,26,-323
278498323,-2608,1256,15404,-128,151,-37
278501855,-2680,2064,15556,-77,145,-3
278505238,-4008,-1088,16436,-55,274,67
278508708,-4056,1268,15956,11,131,160
278512092,-3084,-756,16548,-243,151,-425
278515735,-2984,884,15796,-203,43,-188
278519205,-2932,1616,15568,-14,-69,-63
278522700,-2700,1436,15552,99,-166,83
278526058,-3348,704,15268,-147,230,100
278529528,-3472,-1408,16760,-67,279,-204
278533172,-3132,872,16176,-307,339,-181
278536729,-2612,268,16060,-252,371,-392
278540285,-3048,1120,15324,-102,152,-233
278543929,-3240,2464,15748,-8,26,208
278547285,-4072,-1700,16568,122,-48,158
278550782,-3860,696,15520,3,-7,61
278553818,-3192,-612,16432,-145,-10,-329
278557462,-2192,1340,15564,-281,208,-361
278561105,-3744,1632,15416,-79,110,224
278564610,-2952,480,15432,-37,206,30
278567872,-4040,964,16044,28,187,187
278571168,-2600,-316,15880,-237,429,-154
278574836,-3344,744,15632,-67,121,-220
278578282,-3144,2236,15796,-231,111,-332
278581925,-3244,720,15496,83,-163,152
278585309,-3812,880,15456,62,-48,18
278588518,-3768,-1168,16688,-16,-128,-72
278592162,-2452,784,15676,-216,282,-87
278595632,-2380,848,15388,-150,66,-290
278599126,-2748,900,15260,-199,167,-117
278602659,-2892,2140,15504,-31,239,119
278606129,-3748,-1364,16660,0,45,171
278609425,-4160,776,16108,41,246,104
278612722,-2800,-48,16444,-294,27,-427
278616192,-3088,1148,15536,-100,-66,-135
278619835,-2984,1716,15384,-21,-14,-18
278623330,-3044,872,15864,150,-260,167
278626775,-3660,256,15824,-191,373,19
278630158,-2388,304,15696,-188,166,-369
278633715,-2716,1208,15912,-251,360,-149
278637359,-2580,904,15784,-261,355,-310
278640915,-3196,656,15252,-67,35,-226
278644299,-3332,2640,15620,52,80,279
278647642,-4024,-2048,16988,-159,69,-220
278651239,-3856,460,15944,-17,99,-63
278654535,-2908,132,16172,-175,-109,-293
278658179,-2136,1612,15764,-91,13,-193
278661649,-3100,1644,15264,-216,185,156
278665240,-3396,-164,15916,64,101,100
278668588,-4188,424,16468,-143,407,12
278671996,-2748,452,15888,-267,300,-294
278675529,-2956,956,15460,-73,213,-188
278678998,-3360,2260,15844,-175,-12,-207
278682642,-3532,76,15788,136,-66,156
278685939,-3908,512,15656,36,-31,126
278689235,-3632,-1332,16640,-34,-74,-231
278692879,-2132,1400,15568,-296,426,-219
278696526,-3084,1124,15588,-90,-4,-76
278699930,-3140,360,15664,-110,275,-53
278703375,-3116,2032,15416,-29,154,153
278706845,-3564,-1456,16708,59,124,179
278710315,-3956,160,16288,-110,297,-63
278713785,-2560,1116,16076,-264,76,-446
278717342,-2776,1324,15244,-16,-78,-23
278720812,-3140,1748,15060,-81,-115,-161
278724480,-3540,-24,16284,178,-109,174
278727926,-3192,1064,15356,-198,206,168
278731482,-2432,-676,15964,-201,140,-444
278735126,-3404,540,16436,-277,441,-113
278738683,-2652,1584,15892,-341,335,-417
278742326,-2836,1232,15052,12,113,-79
278745709,-3784,1896,15596,-56,-70,70
278749140,-4124,-1252,16232,47,61,35
278752389,-3532,756,15672,-130,52,-159
278755859,-3240,-764,16372,-140,-46,-296
278759503,-2224,1840,15700,-314,347,-370
278763146,-3508,1728,15464,-129,84,195
278766651,-3732,-1308,16712,52,214,120
278770086,-3792,1180,15996,-50,210,89
278773494,-2924,-900,16164,-67,235,17
278776852,-3328,176,16000,-182,234,-286
278780409,-2848,2392,15840,-38,-44,49
278783793,-3200,912,15384,84,-101,173
278787176,-3448,1188,15100,45,-28,99
278790472,-3332,-1076,16480,106,-50,30
278793942,-2640,664,15572,-323,254,-355
278797524,-3468,1528,15684,-111,-14,-339
278801143,-2572,1408,15324,-11,104,89
278804526,-3580,1380,15904,-81,166,33
278807909,-3828,-896,16540,-76,287,42
278811292,-3460,60,16128,-78,233,-239
278814676,-2704,-272,16416,-274,142,-468
278818319,-2936,1152,15296,-147,-27,-161
278821987,-3092,1624,15504,-31,-50,-46
278825433,-3836,-828,16700,136,-144,142
278828989,-3492,208,15752,-160,283,102
278832459,-2280,168,15732,-134,321,-320
278836016,-2916,1232,16108,-246,305,-141
278839660,-2824,192,15884,-207,386,-358
278843216,-3312,892,15316,-98,131,-243
278846690,-3416,2464,15612,46,-1,255
278850030,-4036,-1952,16604,-107,92,-221
278853626,-3968,644,15788,8,-5,30
278856662,-3112,-216,16208,-170,26,-313
278860219,-2828,1448,15844,-191,24,-316
278863776,-3356,1832,15408,-175,204,255
278867368,-3400,-1512,16748,29,213,56
278870716,-4256,888,16184,-80,270,116
278874124,-2704,-364,16044,-163,401,-128
278877743,-3060,820,15360,-152,136,-373
278881300,-3252,2524,15760,-139,7,-187
278884769,-3516,-184,15732,96,-113,145
278888240,-3952,844,15580,53,-72,88
278891449,-3464,-1552,16712,-71,-40,-191
278895093,-2032,1512,15544,-267,314,-198
278898761,-2956,696,15624,-113,82,-136
278902206,-2820,644,15604,-166,225,-111
278905763,-3120,1884,15640,-11,273,149
278909233,-3396,-1308,16644,-36,150,117
278912790,-4040,400,16256,-18,217,19
278916086,-2552,740,16108,-232,209,-392
278919643,-2960,1392,15412,-28,-164,-51
278923224,-2936,820,15824,-93,-38,-236
278926670,-3380,412,16208,158,-254,159
278930140,-3508,-20,16064,-132,150,262
278933610,-2744,-1036,16288,-227,181,-421
278937340,-3628,692,16344,-241,331,-99
278940810,-2760,988,15904,-188,323,-233
278944367,-2800,1204,15156,-73,22,-123
278947885,-3696,2184,15644,-19,-60,20
278951220,-3948,-1112,16252,5,24,62
278954430,-3772,624,15708,-41,47,-83
278957726,-3076,428,16184,-148,-61,-280
278961283,-2112,1848,15748,-50,-116,-141
278964927,-3092,1472,15084,-126,152,98
278968431,-3620,-700,16140,28,148,36
278971696,-3928,336,16188,-194,429,-33
278975188,-2880,-964,16340,-298,342,-405
278978807,-2996,1104,15212,-70,206,-196
278982363,-2768,1996,16060,-151,74,-69
278985833,-3712,-696,15996,82,-212,80
278989217,-3552,1456,15144,49,55,72
278992426,-3456,-1300,16568,-106,-101,-270
278996247,-2900,528,15852,-300,376,-290
278999825,-3516,1252,15664,-183,92,-327
279003357,-2488,1592,15436,-66,106,-37
279006827,-3488,1744,15856,-65,280,16
279010210,-3896,-1056,16296,-66,173,64
279013680,-3716,304,16100,53,166,189
279016977,-3248,-920,16560,-289,81,-416
279020533,-2760,1408,15364,45,-128,53
279023941,-2940,1576,15636,-70,-65,-57
279027387,-3876,-632,16588,100,-162,96
279030856,-3204,856,15536,-169,321,135
279034327,-2536,-584,15860,-172,23,-415
279037883,-2976,1036,16352,-284,435,-200
279041527,-2640,1880,15588,-124,181,-39
279045084,-3164,904,15372,34,24,18
279048308,-3784,1636,15872,18,165,283
279051590,-3356,-1496,16888,-9,8,-87
279054886,-3284,868,15608,-137,118,-173
279058443,-2936,1232,15516,-63,-141,-142
279062086,-2600,1588,15624,84,-124,57
279065470,-3328,896,15436,-155,110,137
279068979,-3672,-1324,16760,-57,280,-133
279072608,-3296,712,16120,-71,320,109
279075967,-2760,-336,16188,-279,333,-387
279079610,-2988,1208,15320,-88,227,-201
279083167,-3176,2308,15904,-23,-66,88
279086550,-3856,-1208,16324,141,-118,184
279090193,-3948,532,15596,48,-14,99
279093403,-2948,-516,16284,-53,-85,-186
279096985,-2048,1172,15616,-257,212,-326
279100604,-2732,760,15556,-116,-15,-216
279104160,-2780,824,15436,16,178,94
279107370,-3856,1320,16140,-106,154,105
279110927,-3804,-1492,16628,-63,301,6
279114310,-3136,140,16088,-47,293,-19
279117693,-2540,1148,16028,-250,-1,-325
279121254,-3404,340,15604,90,-143,172
279124658,-3056,1912,15260,-27,-112,-19
279128190,-3876,-1188,16756,36,-31,-6
279131573,-3544,-100,15944,-239,316,-142
279135217,-2772,556,15332,-106,55,-238
279138687,-2492,1384,15876,-215,258,-163
279142330,-2888,2064,15436,-208,261,-250
279145974,-3388,456,15596,68,68,146
279149231,-4052,692,16156,24,20,284
279152393,-2648,92,16460,-134,161,-270
279155863,-2884,1288,15600,-88,-123,-85
279159420,-3056,468,16024,-111,-40,-272
279162977,-3128,972,16112,134,-260,153
279166447,-3040,1604,14988,-149,151,266
279170039,-3012,-1360,16640,-211,220,-413
279173758,-3868,708,16424,-175,290,55
279177117,-2896,220,15936,-188,379,-272
279180674,-2760,1228,15588,-101,64,-278
279184231,-3592,2088,15732,-48,-68,6
279187527,-3780,-684,16008,52,-60,62
279190823,-3800,696,15460,9,73,-2
279193860,-3064,44,16084,-205,-11,-347
279197354,-1748,2020,15376,-128,6,-218
279200800,-3372,1340,15260,-190,269,233
279204356,-3328,-72,15880,30,156,29
279207566,-4096,516,16408,-100,377,33
279210950,-2808,480,16032,-242,258,-339
279214506,-2928,1056,15484,-22,107,-221
279218063,-3408,2348,15884,-178,63,-157
279221623,-3616,8,15652,132,-142,148
279224941,-3768,608,15604,62,37,136
279228126,-3144,-132,16412,-98,-131,-208
279231770,-2068,1456,15592,-204,198,-251
279235413,-3072,976,15656,-129,-7,-80
279238796,-3048,332,15652,85,217,68
279242006,-4224,504,16476,4,160,226
279245216,-3420,-1336,16748,-220,372,-268
279248993,-3160,936,15500,-64,319,-87
279252329,-2796,1000,16204,-203,-35,-259
279255973,-3372,368,15676,-17,-24,-35
279259356,-3012,1776,15060,42,-141,99
279262739,-3588,-1380,16676,-48,6,-162
279266209,-3340,-56,15900,-317,364,-246
279269770,-2968,932,15680,-175,51,-431
279273279,-2328,1704,15756,-179,285,-55
279276793,-3068,1884,15548,-153,206,-170
279280436,-3780,-184,15860,10,168,135
279283820,-3988,456,16144,42,55,267
279287029,-3684,-1688,17008,-201,159,-374
279290760,-2800,1568,15544,-164,73,-141
279294316,-3132,916,15840,-65,-71,-154
279297811,-3540,184,16416,14,-66,-50
279301083,-3312,1008,15380,-161,182,217
279304639,-2564,-792,16164,7,317,-69
279307936,-3444,576,16348,-273,329,-132
279311493,-2780,1540,15688,-173,308,-165
279315136,-2988,1064,15464,-17,29,-126
279318606,-3604,2004,15676,-45,-42,36
279322014,-3928,-1240,16212,26,22,90
279325286,-3488,592,15796,-89,65,-154
279328669,-3000,800,15872,-174,24,-295
279332139,-2348,1752,15740,8,-162,-98
279335523,-3196,1188,15320,-189,282,234
279339079,-3688,-1024,16312,23,193,-45
279342549,-3716,436,16412,-7,230,158
279345846,-2748,-640,16068,-307,380,-389
279349538,-3104,1048,15240,-77,150,-216
279353046,-2764,2220,15928,-86,65,-31
279356429,-3992,-1020,16060,65,-78,122
279359899,-3648,920,15132,83,54,63
279363022,-3044,-852,16492,-174,-110,-328
279366752,-2600,696,15800,-319,316,-347
279370309,-3420,1432,15504,-103,72,95
279373734,-2448,1272,15380,5,75,96
279376816,-3824,1260,16004,4,349,153
279380112,-2916,-996,16208,-281,335,-371
279383756,-3432,460,15740,-75,275,-183
279387225,-2868,1952,15852,-109,-71,-47
279390782,-2912,1320,15528,64,-183,119
279394252,-3596,1152,15236,54,-27,85
279397573,-3176,-856,16448,64,-181,6
279400845,-2696,408,15676,-328,416,-294
279404402,-3420,1488,15616,-175,-7,-352
279407959,-2440,1436,15452,-22,199,34
279411342,-3508,1744,15608,-152,225,-21
279414899,-3964,-884,16372,48,195,117
279418282,-3424,152,15904,-40,278,128
279421669,-2912,-40,16472,-257,17,-417
279425160,-2956,1072,15536,78,-117,109
279428605,-3032,1644,15612,-75,-129,-73
279432162,-3880,-692,16492,123,-96,89
279435545,-3472,208,15936,-202,280,62
279438929,-2460,-20,15712,-155,51,-358
279442399,-2524,1620,15340,-277,403,-181
279446042,-2772,1868,15812,-128,184,18
279449561,-3228,776,15504,72,50,46
279452635,-3852,1260,16028,4,120,180
279455932,-3072,-752,16832,-231,153,-413
279459575,-2860,892,15712,-184,35,-191
279463045,-2876,1664,15544,-10,-88,-57
279466515,-2976,1308,15824,107,-138,121
279470072,-3408,392,15696,-190,248,94
279473478,-3424,-1372,16796,-107,302,-262
279477220,-2860,1080,16000,-144,318,21
279480655,-2700,312,15776,-252,320,-350
279484212,-3140,892,15156,-69,175,-243
279487682,-3360,2600,15596,34,-30,260
279491065,-4068,-1932,16716,153,-45,196
279494622,-4108,448,15864,-5,9,-26
279497770,-2976,100,16264,-131,-8,-311
279501215,-2836,1308,15672,-187,74,-207
279504772,-3520,1604,15292,-151,163,163
279508328,-3208,148,15748,25,226,119
279511625,-4128,404,16420,-115,273,23
279515008,-2672,336,16016,-251,439,-290
279518565,-3016,872,15528,-68,72,-244
279521973,-3228,2544,15676,-195,41,-254
279525505,-3432,312,15632,153,-162,203
279528975,-4116,344,15788,86,-79,137
279532272,-3536,-1480,16588,-129,-52,-253
279536002,-1932,1516,15352,-284,337,-236
279539645,-3120,968,15468,-119,102,-130
279543202,-2476,1784,15416,-103,124,-85
279546819,-3096,1836,15376,-10,301,157
279550229,-3776,-592,15968,15,93,121
279553525,-3864,408,16084,-14,262,-34
279556909,-2624,1044,16028,-263,124,-390
279560552,-2812,1440,15444,-8,-127,-57
279564022,-3064,1252,15608,-64,-17,-115
279567579,-3604,-192,16472,159,-206,138
279571136,-3320,800,15340,-172,293,176
279574629,-2368,-424,16132,-174,28,-430
279578197,-3528,660,16208,-234,397,-94
279581632,-2688,1276,15748,-250,274,-210
279585276,-2872,1632,15188,57,-36,-56
279588659,-3916,1384,15792,36,210,278
279592042,-4064,-1508,16600,-29,-5,-58
279595512,-3468,672,15748,-79,90,-100
279598920,-3092,-740,16372,-179,-15,-379
279602539,-2264,2064,15668,74,-195,41
279605922,-3344,1756,15376,-143,213,191
279609479,-3804,-1396,16692,-57,219,-144
279613123,-3864,1348,16000,-9,287,169
279616506,-2964,-976,16096,-273,297,-390
279620149,-3188,332,16032,-164,266,-367
279623731,-2924,2592,15700,-249,70,-345
279627263,-3440,336,15628,146,-219,138
279630733,-3824,1172,15340,39,-13,37
279634029,-3684,-1324,16684,3,-182,-61
279637499,-2272,996,15460,-264,363,-350
279641056,-2592,644,15560,-119,-51,-231
279644613,-2684,1208,15188,-261,309,-137
279648305,-2800,1976,15508,-41,214,138
279651726,-3400,152,15728,55,25,158
279654936,-4128,684,16000,6,288,74
279658059,-2652,64,16300,-267,-24,-405
279661529,-3052,1104,15444,-99,1,-109
279664912,-2952,1760,15220,-19,-124,-3
279668382,-3852,-1092,16632,69,-47,-2
279671789,-3476,144,15876,-253,332,-22
279675235,-2504,376,15604,-113,6,-287
279678654,-2568,1440,15800,-270,421,-136
279682262,-2908,1956,15860,-94,169,15
279685646,-2964,1184,15352,60,94,166
279688942,-4208,404,16036,-36,200,92
279692239,-2760,260,16436,-226,64,-403
279695709,-2848,1180,15616,-115,2,-111
279699203,-2980,1980,15144,-23,-97,-20
279702648,-3132,944,15840,193,-193,184
279706119,-3536,388,15828,-208,237,52
279709502,-2292,144,15656,-111,263,-332
279713058,-2996,1064,16124,-306,338,-166
279716702,-2716,352,15980,-236,339,-374
279720259,-3012,1216,15112,-82,205,-268
279723840,-3712,2272,15588,105,-54,360
279727286,-4088,-1984,16908,115,-18,99
279730755,-4028,796,15636,-23,29,-19
279734052,-2988,-96,16164,-160,-9,-346
279737522,-1868,1804,15656,-187,87,-265
279741079,-3332,1708,15252,-177,142,221
279744636,-3464,-80,15812,65,262,71
279747894,-4124,468,16328,-126,297,55
279751229,-2608,448,16012,-202,378,-285
279754785,-3056,968,15452,-108,122,-249
279758342,-3388,2432,15792,-158,-28,-183
279761986,-3432,128,15656,82,-71,170
279765282,-3852,688,15668,55,-113,72
279768579,-3532,-1236,16496,-69,-21,-188
279772245,-2236,1332,15716,-271,282,-192
279775866,-2888,1008,15536,-104,128,-154
279779544,-2392,1720,15560,-145,172,-49
279783066,-3088,1880,15516,-137,177,-100
279786709,-3704,-272,16144,2,185,141
279790006,-3812,288,16064,-51,201,-4
279793302,-3556,-1528,16840,-208,164,-404
279797057,-2708,1512,15572,-189,66,-178
279800589,-2972,1272,15860,-72,-80,-132
279804146,-3432,-156,16208,26,-79,7
279807356,-3220,1264,15352,-178,131,192
279810912,-2524,-916,16312,-227,169,-390
279814556,-3716,588,16344,-255,340,-113
279818113,-2672,1160,15904,-252,384,-376
279821781,-2812,1524,15188,-51,48,-122
279825226,-3024,2504,15508,45,-81,190
279828610,-3976,-1512,16172,-17,85,-33
279832080,-3568,796,15632,35,-43,81
279835289,-3288,-1040,16416,-137,17,-307
279838933,-2176,1840,15696,-330,281,-386
279842576,-3524,1472,15684,-125,118,127
279846133,-2608,1220,15108,-25,176,47
279849565,-3900,1152,16112,27,154,207
279852900,-2780,-772,16284,-117,345,-65
279856456,-3508,496,15804,-102,172,-206
279860013,-2840,1980,16056,-240,69,-397
279863570,-3056,1188,15492,69,-185,127
279867040,-3004,1836,15088,27,-107,12
279870423,-3804,-1016,16728,34,-99,-10
279873916,-2708,588,15604,-214,297,8
279877190,-2340,320,15716,-83,51,-315
279880608,-2400,1464,15332,-58,74,1
279883783,-3576,1540,15796,-62,217,51
279887166,-4056,-1108,16536,-68,190,54
279890636,-3348,304,16204,-44,265,-189
279894106,-2948,-552,16308,-322,141,-456
279897774,-2824,1348,15312,-130,-96,-161
279901393,-3000,1464,15484,-55,20,-66
279904776,-3832,-660,16576,122,-274,79
279908246,-3324,488,15512,-163,336,85
279911629,-2384,-84,15756,-132,233,-254
279915186,-3284,884,16064,-274,381,-147
279918743,-2576,1716,15856,-287,436,-419
279922411,-3000,1416,15104,24,-73,68
279925683,-3912,1172,16008,56,20,276
279928979,-3904,-1664,16552,-54,2,-120
279932449,-3108,956,15548,-86,56,-116
279935833,-2976,-556,16408,-211,21,-350
279939389,-2540,1672,15508,91,-208,70
279942773,-3476,1776,15272,-169,188,147
279946333,-3424,-1184,16728,-45,176,-150
279950022,-4112,596,16316,-52,318,122
279953356,-2888,-84,15884,-263,267,-373
279956913,-3196,632,15584,-54,174,-185
279960383,-3084,2360,15928,-82,-10,109
279963853,-3204,748,15444,126,-181,162
279967323,-3688,716,15460,19,123,49
279970532,-3012,-464,16388,-45,-143,-138
279974199,-2268,1012,15564,-271,316,-317
279977820,-2724,616,15572,-77,-35,-197
279981325,-2688,1176,15488,7,129,48
279984499,-3964,1200,15960,-47,222,86
279987883,-3760,-1148,16632,-118,264,-5
279991439,-3424,96,16016,37,260,54
279994562,-2896,2536,15768,-283,-10,-391
279998230,-3340,536,15452,139,-107,145
280001676,-3000,1856,15220,-68,-29,-78
280005146,-3812,-1132,16680,86,-180,52
280008616,-3620,-188,15856,-255,457,-48
280012173,-2380,692,15528,-103,-96,-280
280015729,-2596,1432,15796,-219,349,-141
280019373,-2884,2104,15632,-242,311,-318
280023041,-3240,616,15592,54,19,197
280026226,-3964,672,16256,56,122,307
280029523,-3868,-1848,16932,-165,26,-276
280033166,-3000,1108,15612,-105,38,-124
280036723,-2860,228,16080,-192,-69,-322
280040280,-3088,1232,15844,-69,-46,-192
280043836,-3212,1600,15268,-223,202,226
280047495,-3556,-360,16144,62,160,48
280050690,-3860,396,16212,-177,407,14
280054073,-2876,548,15916,-237,273,-314
280057630,-3008,992,15500,-29,179,-223
280061100,-3412,2324,15808,-11,-12,253
280064570,-3588,-152,15644,122,-98,161
280068039,-3820,628,15948,-50,53,-18
280071339,-3388,-1336,16416,-87,-80,-246
280075003,-2036,1584,15428,-186,184,-251
280078623,-3092,1164,15612,-112,-29,-50
280082219,-3204,268,15744,-95,236,-62
280085563,-3368,1840,15624,-13,157,198
280089033,-3192,-1404,16612,-9,132,119
280092508,-3980,344,16156,-72,272,-67
280095886,-2696,1080,16280,-213,2,-285
280099381,-2772,1520,15400,-19,-26,-1
280102740,-3124,1720,14908,63,-128,101
280106210,-3804,-192,16512,164,-123,190
280109766,-3288,248,16064,-251,294,-194
280113323,-2408,-644,15844,-162,100,-405
280116967,-2388,1664,15600,-278,454,-170
280120610,-2760,1516,15824,-170,172,-105
280124278,-2864,1120,15432,13,115,-12
280127637,-3692,1848,15636,44,59,298
280130933,-3524,-1740,16932,66,47,6
280134143,-3676,720,15772,-182,31,-136
280137613,-2820,984,15980,-62,-65,-225
280141083,-3624,292,16164,8,-86,-10
280144293,-3132,1176,15500,-121,171,197
280147898,-2568,-816,16244,-25,305,-79
280151320,-3664,800,16272,-234,325,-85
280154790,-2824,1112,15968,-220,317,-218
280158433,-2864,1384,15192,-45,40,-129
280161903,-3724,2004,15636,-3,-73,83
280165199,-3836,-1264,16172,20,20,57
280168496,-3616,704,15852,-43,36,-78
280171816,-2868,632,16012,-178,49,-317
280175263,-2208,1796,15660,-31,-136,-138
280178906,-3032,1460,15364,-132,166,66
280182411,-3572,-640,16132,9,133,5
280185499,-3636,448,16468,-184,455,-86
280188969,-2956,-920,16296,-316,327,-374
280192612,-2900,1236,15224,13,61,-129
280195996,-2784,1932,15868,-142,42,-84
280199490,-3896,-624,16096,126,-100,136
280203023,-3416,1248,15136,56,91,101
280206319,-3376,-1104,16396,-132,-81,-281
280210049,-2684,476,15668,-272,387,-316
280213606,-3516,1360,15620,-167,2,-375
280217076,-2384,1488,15528,-11,118,38
280220459,-3532,1632,15788,-7,229,213
280223867,-3800,-1072,16488,-21,136,70
280227312,-3608,336,16024,-77,330,-173
280230783,-2772,1716,15980,-298,56,-427
280234339,-2864,1320,15424,70,-133,71
280237722,-3316,1472,15216,-53,-48,-75
280241193,-3876,-548,16448,124,-175,130
280244749,-3488,460,15824,-150,304,91
280248181,-2304,-36,15676,-199,30,-412
280251603,-2432,1640,15544,-232,372,-112
280255246,-2780,1544,15764,-203,266,-131
280258890,-2884,1572,15220,44,-51,44
280262186,-4060,804,15864,42,212,300
280265483,-3196,-568,16712,-130,74,-255
280269039,-3256,980,15644,-61,54,-53
280272359,-2896,1356,15816,-127,-96,-183
280275979,-2604,1700,15748,133,-193,75
280279449,-3380,584,15604,-177,201,268
280282954,-3364,-1380,16948,-45,239,-240
280286563,-3324,864,16016,-53,363,119
280289946,-2720,-280,15860,-234,242,-387
280293589,-3144,588,15684,-99,260,-296
280297084,-3072,2628,15676,-8,-51,179
280300443,-4060,-1752,16444,154,-137,199
280304086,-3856,924,15740,-12,39,27
280307296,-3120,-616,16404,-6,-146,-69
280310766,-2240,936,15608,-318,293,-371
280314323,-3668,1796,15356,-110,-56,-223
280317966,-2860,768,15388,76,177,115
280321266,-4028,1024,16128,-92,191,126
280324757,-3608,-1508,16596,-93,288,-72
280328289,-3292,392,15736,-46,313,57
280331586,-2628,444,16152,-259,14,-375
280335056,-3200,732,15272,62,-63,141
280338353,-3692,1172,15392,-43,-140,-8
280341823,-3652,-1056,16656,56,-88,15
280345206,-2276,712,15452,-280,383,-50
280348724,-2332,640,15476,-55,1,-290
280351972,-2496,1300,15580,-72,149,52
280355356,-3732,1316,15764,-39,163,52
280358739,-3816,-1168,16604,-74,247,21
280362209,-3304,376,15864,-15,177,146
280365592,-2932,-240,16420,-285,126,-447
280369235,-3008,1132,15308,-125,-76,-161
280372902,-3028,1720,15352,17,-81,-36
280376262,-3848,-936,16588,113,-183,152
280379819,-3300,508,15864,-134,290,67
280383237,-2404,-52,15664,-137,267,-284
280386759,-2696,1104,15916,-274,312,-209
280390403,-2716,716,15868,-244,350,-326
280393959,-3068,656,15480,58,-55,51
280397194,-3864,1428,15764,22,46,239
280400466,-4156,-1924,16684,-48,53,-147
280404022,-3100,940,15628,9,5,-33
280407059,-2908,1760,15544,-208,30,-319
280410615,-2868,1056,15656,128,-244,126
280414172,-3364,836,15544,-172,236,163
280417642,-3380,-1332,16828,-106,168,-198
280421376,-4204,692,16176,-65,356,73
280424693,-2824,-224,16036,-243,309,-357
280428312,-3064,672,15596,-143,186,-322
280431869,-3248,2680,15676,8,2,273
280434992,-4072,-1936,16656,134,-140,167
280438636,-4020,992,15672,29,106,30
280441845,-2924,-640,16448,-169,-105,-354
280445576,-2096,1336,15512,-228,229,-320
280449268,-3044,812,15592,-110,26,-148
280452689,-2900,652,15436,66,161,101
280455986,-4168,752,15984,-35,245,163
280459369,-3340,-1252,16644,-152,240,-156
280463099,-4092,400,16132,7,288,58
280466222,-2612,600,16056,-270,-6,-383
280469692,-3212,808,15456,148,-116,188
280473185,-2952,1724,15240,-19,-44,4
280476458,-3652,-1220,16720,18,-115,-47
280480015,-3524,44,15868,-222,427,-108
280483520,-2748,488,15512,-99,-73,-271
280486955,-2304,1672,15760,-207,348,-176
280490599,-2888,2136,15512,-49,141,128
280494069,-3504,324,15600,59,41,131
280497303,-3952,840,15984,-25,246,113
280500662,-2732,-104,16344,-142,38,-272
280504219,-2944,1408,15304,-113,49,-88
280507689,-3036,1700,15100,-128,-116,-234
280511419,-3240,704,16060,179,-158,156
280514889,-3232,1452,15268,-198,169,234
280518446,-3132,-1328,16692,-121,216,-372
280522200,-4072,544,16192,-199,422,-44
280525646,-2792,780,16008,-207,278,-340
280529203,-3020,1132,15324,-68,189,-182
280532759,-3368,2512,15612,-158,-72,-150
280536403,-3576,-368,15820,162,-4,166
280539786,-3556,1240,15120,61,-7,74
280542996,-3436,-1168,16708,-87,-50,-231
280546700,-2028,1472,15612,-330,416,-275
280550283,-3308,1108,15752,-76,1,-56
280553579,-3480,64,15924,-78,250,31
280556789,-3400,1636,15580,15,127,208
280560172,-3192,-1424,16532,-204,430,-293
280563903,-3604,580,15948,-76,220,-83
280567286,-2824,1120,16108,-151,49,-203
280570843,-2800,1588,15428,-29,-72,-22
280574336,-3380,1492,15044,84,-98,134
280577696,-3820,-560,16380,149,-102,118
280581252,-3164,252,15856,-273,296,-189
280584844,-2352,-464,15948,-125,49,-397
280588366,-2308,1952,15456,-332,495,-165
280592009,-2840,1388,15900,-125,226,-98
280595566,-3628,-128,16232,-4,63,6
280598714,-3988,1116,15676,61,101,309
280602073,-3240,-932,16824,-276,163,-494
280605716,-3340,844,15676,-110,-2,-81
280609099,-2904,1108,15804,-112,-4,-192
280612656,-2252,1932,15696,67,-210,58
280616039,-3240,672,15348,-204,256,196
280619509,-3572,-1288,16752,-29,314,-183
280623177,-3388,648,16112,-300,392,-118
280626710,-2768,-352,16016,-252,436,-403
280630353,-3084,1212,15336,-75,130,-261
280633910,-3200,2268,15840,-39,16,146
280637293,-3960,-1184,16180,70,-103,145
280640850,-3876,824,15572,50,-10,64
280644060,-3080,-484,16596,-174,-13,-333
280647751,-2256,940,15600,-314,209,-342
280651260,-3440,1724,15428,-71,39,-249
280654730,-2852,1016,15388,15,50,90
280657940,-3812,1052,16128,-6,327,132
280661323,-2884,-680,16240,-129,260,-70
280664880,-3212,416,15860,-95,201,-268
280668350,-2572,336,16132,-273,124,-390
280671930,-3036,1024,15384,98,-197,176
280675376,-3192,1940,15256,44,-25,45
280678673,-3956,-1268,16768,23,-147,-40
280682230,-2460,936,15508,-211,361,-45
280685735,-2572,336,15660,-148,-32,-322
280689256,-2676,1308,15236,-236,302,-178
280692900,-2680,1956,15204,-79,260,73
280696287,-3508,492,15656,43,-33,132
280699604,-3936,888,16164,19,264,111
280702876,-2916,-316,16304,-293,30,-458
280706433,-2952,1284,15532,-95,-15,-147
280709990,-2848,1740,15240,-174,-22,-295
280713633,-3124,972,15848,148,-241,178
280717103,-3540,180,15936,-161,234,246
280720573,-3152,-1220,16708,-134,169,-308
280724328,-4112,336,16456,-142,371,-34
280727773,-2708,828,16028,-248,258,-310
280731330,-3044,1084,15308,-24,79,-154
280734800,-3564,2340,15816,-29,93,221
280738183,-3520,-224,15772,104,-130,145
280741740,-3848,452,15960,-48,152,-40
280745123,-3468,-1192,16632,-132,-83,-247
280748902,-1988,1708,15424,-311,355,-276
280752497,-3388,1232,15688,-120,24,-15
280755967,-3588,-248,16100,-84,139,-5
280759350,-3208,1608,15500,-23,276,177
280762820,-3108,-1232,16552,-14,138,67
280766290,-3776,224,16244,-62,307,-125
280769760,-2700,1492,15976,-291,89,-451
280773340,-2836,1340,15520,65,-115,29
280776700,-3248,1572,15032,24,-75,78
280779997,-3852,-460,16468,163,-219,161
280783554,-2984,36,15844,-384,481,-302
280787059,-2196,-36,15644,-173,4,-433
280790407,-2400,1676,15400,-79,287,-25
280793877,-3188,1944,15524,-149,202,-51
280797458,-3708,-520,16272,44,191,125
280800817,-3880,184,16104,-8,201,257
280804113,-3428,-1224,16828,-263,84,-458
280807757,-2848,1360,15448,-151,120,-182
280811400,-2908,1384,15552,-58,-164,-114
280815044,-2612,1644,15732,101,-149,50
280818514,-3360,820,15436,-164,182,141
280822008,-3624,-1504,16856,-18,207,-189
280825627,-3348,804,16340,-90,350,137
280829011,-2960,-512,15924,-203,270,-351
280832654,-2668,1556,15104,-196,282,-360
280836298,-3300,2636,15564,74,-98,294
280839681,-3936,-1868,16528,136,-140,160
280843324,-3884,1072,15360,4,33,19
280846451,-3096,-812,16424,-105,-48,-331
280850139,-2020,1224,15492,-305,265,-385
280853734,-2900,1012,15600,-102,-70,-143
280857378,-2840,632,15600,71,201,78
280860587,-4032,1196,16028,-136,208,98
280864058,-3520,-1216,16620,-8,265,-4
280867441,-3276,396,16056,-127,309,-53
280870911,-2520,1072,15916,-219,-41,-337
280874578,-3404,416,15484,-49,-9,-36
280877851,-2960,1996,15132,15,-152,31
280881234,-3756,-1524,16648,-9,12,-87
280884617,-3476,188,15876,-244,300,-95
280888122,-2760,456,15784,-85,58,-226
280891471,-2720,1244,15420,-281,319,-163
280895114,-2900,1852,15528,-70,194,67
280898522,-3556,-1124,16728,56,112,195
280901967,-4256,40,16232,-54,268,63
280905177,-2368,812,15988,-283,52,-415
280908647,-2828,1284,15552,-50,-134,-30
280912204,-3088,1848,15344,-19,-2,-8
280915500,-3188,768,15956,163,-249,185
280918970,-3508,212,15856,-200,348,14
280922378,-2420,280,15672,-220,178,-405
280925910,-2372,1584,15828,-248,318,-177
280929554,-2824,956,15788,-192,324,-232
280933111,-3252,636,15536,30,16,93
280936234,-3956,864,15900,75,83,340
280939443,-4056,-2100,16884,-159,46,-240
280943087,-2868,1308,15460,-79,35,-128
280946560,-2980,340,16076,-194,-55,-294
280950163,-2988,1204,15816,-118,-46,-224
280953757,-3284,1664,15276,-170,198,267
280957314,-3116,-1392,16864,67,191,51
280960697,-4164,508,16328,-154,427,31
280964080,-2840,216,15888,-197,253,-252
280967637,-2940,1236,15536,-105,180,-273
280971284,-3700,2208,15636,-119,-78,-30
280974861,-3652,-856,16064,118,-3,95
280978134,-3948,844,15824,-4,-2,54
280981257,-3080,-164,16396,-80,-98,-198
280984814,-1992,1856,15404,-208,128,-288
280988492,-3356,1308,15700,-76,-66,3
280991754,-3408,-120,16036,47,269,70
280995050,-4112,640,16276,-67,193,146
280998458,-3396,-1376,16624,-153,350,-211
281002163,-2936,964,15512,-149,315,-182
281005720,-2536,1504,15816,-164,-42,-179
281009364,-2796,1316,15324,20,-64,52
281012660,-3148,1780,15136,60,-108,66
281016044,-3596,-1496,16748,150,-95,149
281019600,-3236,-96,15796,-287,323,-234
281023181,-2412,-324,15964,-183,78,-443
281026714,-2296,1780,15516,-140,229,-70
281030271,-2792,1544,15740,-135,194,-141
281033914,-3448,-164,16076,36,75,-2
281037124,-3844,1568,15692,5,77,310
281040334,-3496,-1452,16708,-215,163,-427
281044064,-3336,864,15736,-148,54,-126
281047636,-2800,1088,15832,-73,-54,-192
281051091,-2508,1704,15608,25,-116,-18
281054561,-3160,920,15424,-169,154,191
281058031,-3656,-1032,16632,-47,307,-97
281061587,-3600,432,16152,-289,379,-146
281065144,-2836,-412,16092,-233,333,-381
281068788,-2852,1204,15460,-189,261,-256
281072454,-3048,2244,15708,-2,-77,109
281075814,-4032,-1336,16288,107,-47,156
281079371,-3808,960,15300,59,-60,63
281082581,-3068,-960,16420,-162,32,-335
281086138,-2352,852,15560,-329,273,-381
281089733,-3604,1600,15532,-66,-57,-286
281093251,-2600,1212,15532,-14,153,88
281096659,-3972,1068,15980,-30,116,141
281100104,-3776,-1540,16960,-128,348,-78
281103748,-3324,404,15912,-48,203,69
281107044,-2832,12,16248,-216,79,-401
281110427,-3076,1008,15528,57,-192,136
281113897,-3096,1624,15500,-23,-86,-10
281117368,-3788,-860,16624,40,-136,-5
281120751,-2568,516,15684,-223,281,-16
281124245,-2620,316,15504,-121,61,-337
281127691,-2384,1572,15328,-305,315,-229
281131334,-2696,2192,15428,-51,289,91
281134718,-3944,-1176,16720,23,32,101
281138101,-3852,884,15960,8,245,144
281141311,-3072,-360,16448,-284,41,-419
281144867,-3004,1044,15416,-119,-43,-173
281148559,-3012,1988,15360,-180,12,-277
281152068,-3048,1036,15904,150,-286,134
281155624,-3480,348,15696,-157,203,212
281159094,-3196,-1380,16888,-144,190,-324
281162825,-4220,460,16172,-133,331,38
281166208,-2836,272,15972,-229,321,-377
281169764,-2964,1032,15588,-141,93,-322
281173345,-3848,2384,15720,77,55,381
281176618,-3588,-596,15856,72,-74,111
281180001,-4024,700,15704,-8,121,-4
281183211,-2876,-40,16232,-157,-58,-380
281186767,-2092,1760,15284,-118,59,-244
281190359,-3200,1588,15276,-106,101,-81
281193881,-3284,272,15804,34,123,124
281197202,-4028,352,16336,-137,407,8
281200474,-2760,296,15948,-218,261,-282
281204031,-3112,928,15708,-89,257,-192
281207501,-2764,1228,16060,-172,-20,-222
281211144,-3412,240,15592,137,-85,166
281214528,-3192,1704,15036,40,-52,68
281217824,-3556,-1168,16604,-56,-108,-167
281221558,-3272,56,15956,-289,482,-189
281225049,-3120,1044,15564,-84,-33,-112
281228581,-2232,1856,15356,-101,250,-32
281232138,-3168,1796,15408,-39,148,152
281235608,-3752,-300,16164,29,125,132
281238991,-3872,112,16124,-68,273,-46
281242374,-2560,1320,15812,-252,60,-445
281245931,-2784,1512,15404,-8,-62,15
281249276,-3096,1676,15020,-101,-133,-154
281252958,-3560,-224,16200,177,-116,127
281256515,-3068,980,15172,-199,216,152
281259985,-2468,-632,16092,-182,64,-407
281263541,-3324,612,16176,-314,528,-201
281267098,-2904,1640,15780,-233,252,-370
281270741,-3132,952,15424,-43,81,-61
281274061,-3620,1964,15376,-42,27,90
281277335,-3920,-1400,16368,68,-41,19
281280718,-3448,644,15644,-146,155,-175
281284275,-3212,-568,16600,-132,-165,-311
281288005,-2124,1800,15500,-313,334,-363
281291683,-3716,1784,15524,-85,36,177
281295032,-3724,-1380,16776,9,131,85
281298353,-3980,1280,15900,-30,269,175
281301798,-2532,-828,16176,-216,316,-375
281305442,-3396,232,15988,-156,339,-321
281308998,-3048,2700,15748,-273,-25,-395
281312642,-3396,408,15596,168,-126,205
281316112,-3816,1152,15364,-29,-5,-59
281319495,-3636,-1236,16684,70,-156,-15
281323076,-2520,856,15688,-219,406,-41
281326522,-2620,560,15576,-114,-27,-305
281330079,-2584,1352,15364,-208,325,-163
281333722,-3012,1904,15524,-34,130,136
281337192,-3380,360,15664,1,61,99
281340228,-4060,764,15904,-18,253,146
281343612,-2876,52,16388,-274,-1,-466
281347043,-2812,1496,15324,-103,29,-160
281350552,-2932,1792,15356,-23,-166,32
281354022,-3252,748,15872,215,-168,183
281357492,-3476,96,15820,-229,265,-31
281360875,-2336,388,15528,-165,194,-360
281364431,-2596,1488,15916,-316,376,-155
281368075,-2740,684,15824,-185,232,-260
281371655,-3280,748,15524,9,104,99
281374755,-4032,780,16196,49,-29,305
281378051,-4056,-2152,16876,-128,142,-243
281381782,-2916,1232,15432,-97,94,-90
281385165,-2888,324,16224,-141,-93,-273
281388722,-3068,1092,15924,-114,86,-170
281392313,-3240,1684,15372,-184,141,176
281395835,-3204,-1332,16972,103,252,85
281399330,-4228,540,16372,-182,313,66
281402688,-2912,196,16000,-120,290,-247
281406245,-2876,976,15516,-205,186,-298
281409802,-3412,2372,15684,-75,-94,-54
281413272,-3672,-656,15716,54,17,97
281416482,-3864,928,15624,-15,-28,4
281419691,-3048,-324,16236,-38,-15,-168
281423273,-2080,1704,15576,-204,76,-324
281426805,-3228,1316,15588,-41,30,-18
281430188,-3200,-4,15704,2,194,81
281433224,-4200,532,16140,-82,343,49
281436521,-2560,308,15888,-215,408,-254
281440078,-2952,888,15524,-81,123,-234
281443548,-3340,2448,15712,-163,40,-213
281447153,-3540,228,15892,73,-156,197
281450488,-4144,484,15760,99,-60,120
281453784,-3432,-1368,16732,-115,-54,-218
281457514,-2064,1396,15468,-264,320,-210
281461158,-2900,1112,15624,-93,49,-142
281464628,-2276,1704,15428,-133,182,-51
281468185,-3124,1772,15332,33,242,227
281471591,-3232,-1312,16816,-22,146,85
281475038,-4044,168,16228,-27,314,-12
281478421,-2636,1132,16084,-251,132,-443
281482065,-2820,1408,15532,2,-151,-2
281485361,-3092,1748,15072,-94,11,-148
281488831,-3644,36,16120,169,-226,203
281492218,-3460,-168,15992,-284,463,-203
281495893,-2460,-544,16332,-244,82,-480
281499439,-2164,1728,15484,-234,404,-131
281503058,-2820,1120,15788,-179,270,-213
281506702,-2848,1532,14960,-63,3,-67
281509998,-3904,1508,15544,46,175,316
281513381,-3504,-1320,16928,-23,27,-75
281516851,-3512,620,15632,-83,126,-99
281520235,-2808,1028,15776,-217,-58,-356
281523903,-2200,1972,15500,53,-125,-43
281527348,-3456,1036,15476,-120,114,156
281530905,-3784,-1244,16852,-35,261,-70
281534462,-3716,1272,15792,-36,322,193
281537932,-2980,-800,16068,-201,237,-368
281541575,-3156,64,15992,-213,317,-343
281545045,-2984,2692,15696,51,-137,162
281548576,-3308,440,15468,151,-161,167
281551985,-3772,1336,15416,2,-32,75
281555195,-3260,-1232,16512,55,-173,32
281558665,-2428,712,15548,-341,377,-405
281562221,-3476,1548,15612,-98,-76,-289
281565778,-2648,1208,15328,3,189,119
281569075,-3956,1072,15648,-75,144,56
281572481,-3776,-1048,16840,-63,261,-12
281576015,-3628,156,15976,-13,239,148
281579398,-2824,12,16280,-257,23,-467
281582781,-3012,1096,15392,82,-148,129
281586251,-3032,1760,15292,-69,-101,-67
281589808,-3764,-724,16564,103,-87,77
281593191,-3444,128,15708,-219,287,38
281596618,-2348,388,15776,-118,22,-370
281600045,-2324,1436,15292,-314,433,-184
281603688,-2760,2008,15656,-59,168,56
281607071,-3732,-992,16564,20,112,108
281610455,-4032,1104,16024,13,158,159
281613838,-3024,-724,16468,-260,156,-429
281617481,-2928,1008,15568,-144,-53,-166
281621128,-2936,304,16188,-151,-59,-310
281624706,-2908,1276,15876,134,-198,133
281628238,-3328,1732,15308,-179,74,189
281631708,-3228,-1308,16832,-69,288,-264
281635352,-4168,456,16232,-165,296,11
281638735,-2704,380,15952,-213,346,-318
281642292,-3052,1056,15468,-111,137,-232
281645935,-3420,2280,15664,-149,-44,-195
281649627,-3552,136,15676,130,-22,182
281652962,-3964,444,15912,52,-85,106
281656259,-3488,-1324,16556,-72,-17,-224
281659902,-2088,1424,15372,-323,357,-220
281663546,-2964,1100,15924,-33,-20,-71
281667016,-2304,1748,15556,-140,338,-44
281670572,-3324,1728,15360,2,162,192
281673893,-3356,-1304,16644,39,165,114
281677339,-3664,316,16176,-89,202,-80
281680722,-2612,1196,15876,-245,99,-434
281684279,-2728,1500,15348,8,-128,6
281687489,-3268,1724,15088,77,-72,67
281690790,-3676,-1308,16524,122,-110,152
281694429,-3180,116,15840,-266,296,-182
281698027,-2532,-532,16072,-154,157,-407
281701629,-2256,1740,15640,-332,425,-184
281705272,-2784,1536,15728,-112,198,-105
281708916,-2948,1028,15348,-5,127,-37
281712299,-3576,1856,15676,-8,83,242
281715596,-3748,-1648,16812,87,53,15
281718892,-3376,696,15692,-140,-11,-180
281722473,-2904,1224,15840,-59,-42,-147
281726006,-2320,1600,15540,-5,-114,-37
281729476,-3376,1044,15344,-108,8,186
281732859,-3664,-1316,16820,-39,358,-110
281736502,-3476,724,15948,-86,248,118
281739886,-2784,-336,16064,-196,342,-350
281743529,-2924,1144,15368,-186,286,-232
281747221,-3076,2428,15640,-21,-61,113
281750643,-3980,-1408,16284,117,-74,223
281754199,-3872,736,15656,37,-32,56
281757409,-2916,-580,16444,12,-19,-107
281760879,-2240,904,15384,-312,222,-324
281764436,-3452,1664,15576,-75,-11,-247
281767993,-2636,1112,15356,-21,120,68
281771379,-4076,1096,15840,-24,120,121
281774870,-3636,-1232,16736,-120,309,-14
281778489,-3300,164,16000,-41,207,25
281781786,-2580,816,16116,-215,70,-397
281785256,-3164,548,15536,92,-197,136
281788639,-2904,2048,15448,39,-36,34
281791936,-3776,-1348,16740,49,-161,-61
281795492,-2352,940,15524,-221,316,-47
281799004,-2376,344,15464,-118,14,-304
281802432,-2616,1300,15144,-277,298,-144
281806076,-2776,2104,15560,-71,231,96
281809459,-3252,428,15568,14,31,114
281812669,-4220,716,16084,8,300,138
281815879,-2860,-164,16376,-262,-26,-402
281819522,-3036,1072,15612,-86,1,-177
281822930,-3004,1848,15496,-30,-101,18
281826375,-3740,-1120,16636,160,-263,180
281830019,-3416,308,15716,-190,377,33
281833402,-2964,-1268,16692,-120,131,-316
281837132,-2788,1164,15996,-184,373,-9
281840602,-2576,780,15784,-233,293,-328
281844159,-3388,624,15412,-29,30,-158
281847591,-3332,2464,15736,4,96,233
281850752,-3976,-2044,16960,-102,48,-206
281854396,-3972,544,16036,6,118,-45
281857605,-2936,96,16240,-170,-101,-308
281861162,-2824,1276,15664,-94,56,-226
281864632,-3488,1540,15568,-209,135,178
281868189,-3244,-1288,16900,48,160,82
281871597,-4208,436,16324,-132,394,28
281874955,-2624,64,15932,-213,300,-388
281878425,-2792,936,15744,-117,201,-315
281881982,-3440,2588,15480,-156,-34,-148
281885626,-3756,-448,15872,148,-70,154
281889096,-3916,732,15696,13,-8,116
281892305,-3616,-1476,16564,-94,-80,-237
281895949,-1832,1672,15340,-332,480,-272
281899634,-3252,1020,15688,-41,-71,-53
281903062,-2920,396,15536,-188,328,-83
281906532,-2976,1912,15464,-16,105,194
281910002,-3456,-1324,16820,30,124,157
281913472,-3856,360,16280,-78,248,-72
281916856,-2628,1076,15968,-247,75,-420
281920412,-2836,1596,15400,-24,-75,14
281923820,-3072,1728,15108,-130,-110,-193
281927526,-3456,272,16256,187,-145,180
281930996,-3288,-80,15792,-195,171,225
281934466,-2372,-548,16168,-161,96,-435
281938023,-3552,624,16168,-322,462,-144
281941579,-2880,1528,15800,-114,173,-133
281945223,-2900,1160,15164,-11,115,-64
281948742,-3776,2064,15520,-63,-31,76
281952076,-4076,-1256,16516,110,29,72
281955459,-3584,604,15800,-160,24,-139
281958929,-2924,1020,15984,-125,-73,-296
281962573,-2228,1852,15656,-27,-112,-75
281966129,-3444,1688,15388,-146,55,113
281969600,-3744,-1080,16552,-3,311,-33
281973094,-3880,976,15876,-17,209,183
281976453,-2872,-728,16116,-224,414,-410
281980096,-3300,488,15920,-128,215,-205
281983653,-3016,2056,15852,-258,7,-414
281987123,-3116,1100,15516,58,-76,100
281990506,-3712,908,15552,75,-89,66
281993716,-3244,-860,16456,23,-12,-24
281997123,-2492,560,15644,-283,243,-327
282000691,-3400,1600,15760,-95,41,-305
282004126,-2632,1332,15352,-63,123,37
282007509,-3500,1440,15776,26,258,205
282010893,-3812,-1188,16700,-74,254,29
282014363,-3496,344,16028,-125,263,-213
282017919,-2960,-428,16416,-245,127,-437
282021587,-2952,1300,15468,-142,-65,-139
282025206,-2876,1808,15448,-14,-68,-15
282028676,-3816,-944,16620,164,-202,173
282032233,-3380,392,15756,-192,270,43
282035616,-2340,-20,15608,-96,274,-286
282039086,-2832,1072,16016,-313,334,-208
282042730,-2548,472,15704,-183,330,-345
282046290,-3244,956,15232,9,22,78
282049425,-4108,1236,15940,64,-24,258
282052706,-4040,-2044,16712,-106,90,-184
282056350,-3048,1168,15564,-109,-21,-166
282059993,-2924,-32,16304,-164,-2,-286
282063463,-2920,1436,15704,-204,66,-292
282067020,-3480,1596,15364,-143,150,184
282070577,-3340,160,15880,20,159,138
282073898,-4200,500,16184,-65,323,74
282077170,-2592,228,15996,-260,334,-387
282080726,-3052,760,15724,-90,110,-241
282084196,-3356,2660,15420,-19,64,243
282087580,-3516,224,15712,137,-155,167
282091050,-4052,668,15636,6,76,13
282094086,-2936,-384,16164,-185,-79,-350
282097753,-2208,1292,15664,-197,137,-296
282101412,-3276,1804,15576,-135,140,-176
282105016,-3088,664,15540,33,136,98
282108226,-4124,596,16124,28,257,174
282111522,-3352,-1456,16772,-162,256,-133
282115253,-3176,764,15860,-7,275,-10
282118549,-2660,620,16012,-257,-3,-331
282122044,-3304,744,15536,152,-102,144
282125489,-3072,1824,15096,24,-32,100
282128873,-3576,-1276,16648,-41,-91,-137
282132516,-3488,-36,15728,-218,453,-127
282136073,-2520,768,15516,-110,-70,-230
282139630,-2340,1620,15696,-190,369,-148
282143273,-2800,2128,15360,-197,270,-264
282146965,-3524,452,15572,69,91,215
282150126,-4140,240,16560,92,124,309
282153423,-3796,-1616,16948,-218,69,-409
282157066,-2928,1296,15648,-51,87,-71
282160450,-2916,628,16124,-184,-111,-285
282164093,-3268,788,15868,-18,-50,-84
282167476,-3348,1228,15372,-182,159,195
282171037,-2516,-876,16556,-15,224,-42
282174528,-3964,340,16140,-218,449,-82
282177973,-2792,1124,15968,-248,278,-384
282181617,-2948,1332,15272,-38,149,-113
282185173,-2860,2032,15960,-99,-44,-75
282188643,-3716,-744,15988,140,-31,137
282192113,-3792,696,15780,21,-19,81
282195323,-3148,-1076,16508,-131,-25,-323
282199077,-2208,1656,15468,-252,355,-278
282202732,-3076,1520,15708,-128,-2,11
282206080,-3464,-484,16164,-33,232,85
282209463,-3588,1332,15752,39,139,183
282212847,-2940,-944,16416,-66,259,17
282216230,-3596,112,15972,-160,266,-152
282219787,-2704,1880,15716,-128,-3,-83
282223281,-3008,1460,15452,52,-79,88
282226553,-3340,1428,15308,68,-110,118
282230023,-3856,-852,16492,93,-33,60
282233320,-2848,360,15668,-261,253,-265
282236876,-3264,1260,15792,-130,83,-368
282240433,-2392,1656,15184,-99,123,24
282243816,-3592,1632,15512,-55,150,35
282247248,-3684,-944,16636,-74,262,29
282250583,-3888,152,15932,-81,259,-105
282254053,-3096,-836,16536,-258,180,-432
282257696,-3020,1388,15420,-184,-16,-206
282261340,-2808,1584,15520,-11,-60,-57
282264810,-3844,-684,16360,128,-184,119
282268367,-3464,592,15612,-144,203,121
282271861,-2284,-32,15804,-122,335,-238
282275393,-3260,924,15856,-274,362,-117
282278950,-2888,-440,16148,-182,363,-390
282282594,-2904,1600,15168,-227,230,-354
282286237,-3284,2536,15596,125,-27,317
282289707,-4008,-1888,16868,93,-26,130
282293177,-3948,1040,15588,34,-14,18
282296477,-3072,-636,16492,-207,-10,-360
282300140,-2036,1464,15512,-229,134,-304
282303796,-3172,1020,15664,-49,-9,-107
282307231,-3012,716,15392,-7,157,89
282310440,-4216,480,16028,-26,305,122
282313824,-3276,-1280,16740,-244,334,-253
282317554,-3076,636,15740,-50,231,-46
282320937,-2636,1004,15960,-229,66,-315
282324518,-3336,564,15460,-47,-138,-31
282327964,-3164,1864,15084,87,-22,117
282331347,-3516,-1388,16508,-95,-54,-226
282334991,-3312,172,15948,-176,322,-130
282338547,-2760,752,15880,-187,179,-421
282342104,-2444,1536,15500,-239,275,-113
282345748,-2776,1228,15888,-155,325,-234
282349440,-3556,488,15828,-84,34,-130
282352774,-3948,1640,15524,114,78,383
282356157,-3420,-1428,16872,-295,146,-450
282359888,-3432,944,15552,-94,-13,-51
282363271,-2880,836,16100,-163,-12,-278
282366828,-2348,1968,15544,20,-139,-64
282370298,-3344,1224,15496,-103,205,224
282373879,-3680,-1120,16800,-65,270,-90
282377411,-3660,536,16220,9,195,175
282380621,-2720,-792,16376,-274,349,-398
282384265,-2752,1284,15356,-165,188,-259
282387908,-3024,2176,15748,-64,-3,35
282391205,-3788,-1020,16264,64,-79,68
282394588,-3692,1156,15444,86,26,118
282397907,-3120,-1024,16496,-168,-74,-333
282401615,-2544,624,15712,-265,285,-337
282405206,-3348,1688,15728,-152,109,-290
282408815,-2672,1112,15296,-47,112,54
282412198,-3644,1624,15624,-77,281,0
282415495,-4004,-924,16600,-24,150,146
282418965,-3436,-32,16072,-165,344,-315
282422546,-2644,332,16216,-326,34,-473
282425991,-3196,760,15512,156,-134,177
282429461,-2988,1748,15588,-87,-42,-89
282432931,-3772,-956,16508,112,-135,98
282436401,-3536,100,15976,-166,333,34
282439785,-2336,324,15872,-170,-18,-359
282443341,-2812,1020,15800,-244,421,-130
282447034,-2692,2000,15792,-77,160,-23
282450455,-2988,1132,15220,67,-10,128
282453838,-4272,736,16108,14,200,202
282457135,-3012,-468,16504,-108,40,-264
282460691,-2988,1140,15608,-113,38,-115
282464248,-3020,-140,16172,-175,-81,-362
282467892,-2844,1500,15708,165,-157,136
282471452,-3400,1728,15292,-178,118,227
282475029,-3300,-1512,16952,66,169,74
282478388,-4184,532,16404,-145,377,81
282481772,-2712,100,15944,-196,255,-346
282485328,-3036,820,15560,-123,232,-281
282488885,-3136,2628,15752,21,-73,256
282492268,-3608,-28,15660,145,-81,218
282495652,-3948,612,15708,13,11,9
282498711,-2848,-200,16328,-175,-27,-335
282502331,-2292,1500,15528,-209,142,-252
282506010,-3408,1628,15492,-113,-20,-121
282509618,-2992,584,15532,45,228,120
282512915,-4376,512,16236,13,132,194
282516211,-3256,-1420,16652,-168,385,-199
282519942,-3216,708,15688,-68,247,-30
282523349,-2584,1012,16132,-218,14,-300
282526882,-3488,476,15604,-16,-41,-23
282530265,-3040,1628,15124,9,-97,51
282533475,-3600,-1192,16708,-10,-47,-102
282537118,-3356,132,15680,-282,353,-163
282540675,-2948,752,15700,-31,4,-162
282543971,-2440,1672,15588,-284,323,-154
282547675,-2880,2012,15448,51,153,164
282550998,-3684,-88,15868,-18,211,145
282554381,-3912,624,16228,-25,174,68
282557678,-2696,360,16228,-171,207,-338
282561234,-2788,1392,15372,-93,-136,-95
282564791,-3004,1924,15192,-112,-53,-214
282568435,-3368,276,15968,166,-192,175
282571929,-3148,1308,15344,-180,147,153
282575461,-2716,-820,16364,-150,175,-349
282579105,-3956,284,16324,-251,371,-98
282582575,-2772,1384,15912,-169,326,-224
282586219,-2900,1092,15416,-55,48,-105
282589689,-3496,2268,15640,-49,-43,-39
282593159,-3872,-912,16072,42,8,130
282596372,-3904,568,15860,-87,50,-107
282599775,-2844,556,16020,-152,49,-311
282603222,-2204,1784,15552,-49,-101,-129
282606900,-3360,1356,15792,-67,115,39
282610248,-3468,-652,16148,7,214,22
282613458,-4188,140,16404,-189,431,-68
282616928,-2684,-836,16396,-292,353,-412
282620572,-2880,1000,15416,-123,220,-178
282624240,-2768,2036,15876,-143,53,-70
282627685,-3136,1176,15380,92,-244,114
282631155,-3552,1432,15236,78,30,102
282634452,-3324,-1100,16548,21,-116,13
282637922,-2800,444,15956,-239,310,-295
282641478,-3268,1436,15768,-210,122,-349
282645122,-2508,1372,15232,-42,116,41
282648553,-3424,1524,15596,-50,263,29
282651888,-3896,-1084,16612,-61,234,76
282655358,-3644,192,16028,65,168,217
282658655,-2860,-656,16480,-299,85,-469
282662212,-3140,1372,15460,98,-122,100
282665682,-2988,1444,15508,-70,-60,-84
282669152,-3600,-592,16108,97,-129,100
282672646,-3536,456,15608,-154,304,87
282676005,-2152,52,15964,-184,-33,-380
282679475,-2344,1588,15300,-303,471,-174
282683118,-2664,2004,15560,-76,99,-75
282686502,-2928,1224,15152,34,26,145
282689798,-4184,880,15840,7,119,223
282693008,-2912,-548,16500,-270,86,-447
282696588,-2992,908,15496,-142,66,-127
282700035,-3008,1604,15828,-62,-129,-106
282703678,-2708,1384,15676,149,-130,158
282707270,-3428,732,15492,-203,115,161
282710705,-3364,-1204,16712,-54,282,-202
282714348,-3168,796,16068,-74,288,128
282717732,-2656,140,15972,-183,280,-412
282721292,-3028,1024,15080,-150,228,-250
282724956,-3184,2504,15744,35,-71,212
282728315,-4224,-1780,16816,136,-84,183
282731872,-3956,816,15752,4,-31,7
282734908,-3164,-480,16256,-125,7,-344
282738378,-2140,1312,15480,-251,224,-295
282742022,-3604,1496,15600,-57,-97,-148
282745578,-2832,792,15372,-51,278,70
282748923,-4352,576,16300,-25,220,120
282752258,-3204,-1268,16680,-212,424,-207
282755988,-3184,548,15592,-48,184,-2
282759285,-2616,576,16188,-214,53,-321
282762755,-3264,612,15468,76,-215,138
282766138,-3924,728,15504,38,-113,42
282769435,-3536,-1144,16652,-45,-99,-117
282773103,-2288,1024,15492,-279,324,-132
282776722,-2720,892,15672,-72,-10,-188
282780191,-2420,1424,15712,-306,322,-172
282783835,-3024,2208,15672,85,156,210
282787218,-3672,-220,15832,-70,160,100
282790688,-4220,536,16080,33,217,78
282793898,-2648,460,16352,-212,139,-341
282797478,-2724,1324,15344,-73,-84,-67
282800925,-3016,1864,15104,-75,46,-256
282804395,-3368,640,16112,179,-303,212
282807900,-3404,-208,15860,-154,169,218
282811421,-2496,-860,16296,-241,179,-444
282815065,-3820,540,16360,-192,283,-75
282818535,-2612,1264,16040,-217,302,-258
282822203,-2876,1188,15192,-51,6,-124
282825562,-3584,2188,15568,122,89,356
282828945,-3576,-1812,16860,11,29,59
282832241,-3760,600,15864,-52,41,-104
282835625,-2824,528,16088,-175,-67,-262
282839182,-2228,1880,15624,-44,-116,-103
282842825,-3144,1408,15424,-120,151,73
282846298,-3600,-732,16380,-23,210,-30
282849813,-3872,484,16256,48,261,184
282853062,-2920,-1012,16596,-297,323,-376
282856792,-2820,1152,15432,-135,215,-234
282860435,-2528,2200,15748,-113,-4,-45
282863905,-3000,1160,15416,81,-208,106
282867375,-3504,1388,15360,49,19,94
282870585,-3280,-1108,16348,12,-133,17
282874080,-2824,264,15836,-237,334,-291
282877612,-3200,1556,15800,-215,87,-363
282881169,-2556,1288,15228,-47,126,12
282884552,-3364,1992,15660,-129,262,-93
282888109,-3748,-712,16396,-9,165,188
282891492,-3716,-284,16248,-176,348,-292
282895135,-2944,-208,16520,-301,23,-444
282898715,-3096,1016,15468,-80,-13,-68
282902162,-2996,1704,15412,-91,-107,-135
282905806,-2856,1488,15584,162,-268,177
282909397,-3576,488,15632,-171,280,54
282912746,-3188,-1380,16796,-135,188,-317
282916476,-2976,1192,15836,-78,312,77
282919859,-2848,264,15892,-234,268,-357
282923440,-2992,1020,15432,-110,104,-242
282927059,-3192,2648,15660,-16,51,248
282930442,-4244,-1980,16784,136,-173,192
282934086,-3876,660,15848,5,144,17
282937209,-3172,-280,16340,-165,-111,-308
282940939,-1976,1472,15360,-184,210,-329
282944583,-3792,1736,15608,-78,-40,-57
282948102,-3052,296,15632,41,202,83
282951263,-4308,632,16320,-76,234,110
282954646,-3160,-1352,16680,-198,290,-206
282958376,-3124,620,15636,9,274,-41
282961586,-2676,1112,16024,-226,-35,-289
282965229,-3328,344,15492,132,-90,171
282968613,-3072,1788,15060,3,-95,27
282971847,-3608,-1300,16520,-10,-103,-103
282975553,-3356,8,15940,-304,452,-167
282978936,-2884,792,15820,-73,-73,-150
282982406,-2908,740,15496,-219,361,-134
282985962,-2844,2208,15476,30,92,175
282989259,-3636,-1532,16980,23,130,177
282992729,-4224,540,16116,-77,250,11
282996029,-2792,476,16368,-217,46,-326
282999519,-2888,1268,15364,-64,10,-72
283002879,-3116,1880,15244,43,-163,68
283006262,-3612,-1316,16660,152,-84,175
283009854,-3444,196,15892,-212,229,-97
283013289,-2552,732,15828,-175,223,-361
283016846,-2544,1460,15712,-276,276,-148
283020489,-2652,1416,15868,-165,211,-214
283024157,-3356,-16,15752,22,131,-71
283027429,-3664,2204,15464,9,25,245
283030639,-3800,-1816,16856,-122,128,-270
283034369,-3800,452,15912,-156,69,-166
283037839,-2764,828,15884,-58,-80,-226
283041309,-2312,1664,15556,-33,-60,-84
283044779,-3208,1500,15356,-136,134,241
283048438,-3720,-960,16448,37,335,-37
283051719,-3988,420,16116,-250,311,-95
283055189,-2708,1212,15916,-243,390,-378
283058833,-2760,1216,15352,-87,39,-162
283062303,-2720,2196,15904,-75,-49,-3
283065686,-3968,-884,16140,82,-7,115
283068982,-3896,396,15852,93,-59,86
283072217,-3128,-1088,16312,-155,37,-342
283075836,-2052,1936,15444,-44,-112,-123
283079479,-3552,1132,15796,-91,128,53
283082862,-3380,-400,16208,14,203,13
283086159,-3804,1292,15832,67,167,231
283089542,-2752,-816,16228,-272,372,-398
283093186,-3656,236,15796,-141,169,-159
283096766,-2620,1828,15936,-95,67,-121
283100212,-3080,1436,15436,60,-185,119
283103682,-3472,1172,15140,89,-18,100
283107066,-3756,-892,16556,31,-42,-6
283110401,-2740,484,15456,-249,302,-248
283113919,-3544,1264,15824,-147,81,-331
283117476,-2376,1632,15216,-100,126,-12
283121036,-2664,2096,15696,-17,200,89
283124440,-3884,-936,16708,-93,220,22
283127799,-3756,68,16116,77,182,214
283131009,-2968,-684,16656,-301,86,-469
283134565,-3028,1392,15644,94,-180,96
283137949,-3356,1212,15172,-55,-24,-80
283141419,-3672,-540,16424,127,-210,84
283144888,-3040,188,15772,-129,280,133
283148407,-2204,-8,15840,-179,1,-415
283151655,-2168,1616,15264,-78,269,-8
283155038,-2844,2076,15640,-37,183,7
283158335,-3956,-888,16668,-79,248,55
283161718,-3984,80,16236,33,224,207
283164928,-3152,-828,16760,-286,32,-468
283168484,-2844,1296,15412,25,-49,54
283171806,-3392,1528,15168,-54,-157,-82
283175338,-3804,-600,16464,123,-76,128
283178808,-3116,168,15776,-180,239,146
283182278,-2244,-196,16112,-140,38,-430
283185835,-3164,892,15896,-334,523,-174
283189391,-2776,1652,15664,-85,144,-98
283192861,-3044,1392,15224,21,77,72
283196075,-4196,1052,15656,95,81,276
283199391,-3132,-780,16676,-249,123,-485
283203011,-3160,988,15472,-137,44,-128
283206481,-3000,1364,15844,-167,-85,-389
283210128,-2560,1852,15592,77,-145,67
283213543,-3460,708,15516,-136,78,212
283216891,-3380,-1240,16752,-82,338,-218
283220535,-3440,636,16024,-37,207,122
283223942,-2660,-96,15932,-242,382,-425
283227475,-2836,1124,15072,-156,196,-250
283231118,-3064,2396,15828,11,-32,128
283234501,-4000,-1456,16436,88,-64,166
283237971,-3836,840,15692,61,-40,44
283241181,-3108,-696,16404,-204,17,-368
283244738,-2064,1176,15492,-279,186,-340
283248430,-3768,1488,15524,-30,-25,-143
283251938,-2920,784,15428,-21,165,35
283255235,-4016,1060,16172,29,217,179
283258618,-3584,-1332,16644,-197,413,-96
283262261,-3296,420,15740,-111,166,-249
283265818,-2660,596,16240,-239,85,-365
283269288,-3288,732,15396,-101,-78,-77
283272783,-3036,1872,15064,58,-100,16
283276141,-3772,-1272,16636,-33,-96,-114
283279785,-3400,216,15648,-190,256,-84
283283255,-2548,476,15656,-134,213,-371
283286812,-2416,1512,15608,-245,302,-168
283290460,-2872,1148,16000,-134,305,-215
283294099,-3404,236,15620,-26,69,156
283297418,-4220,596,16208,63,33,300
283300605,-3904,-1932,17056,-171,125,-288
283304335,-2640,1304,15444,-102,10,-133
283307892,-2840,772,16004,-105,-1,-255
283311362,-3284,688,16104,-54,-118,-118
283314954,-3200,1684,15340,-151,216,208
283318475,-3572,-748,16272,-3,257,-11
283321883,-4068,484,16364,-161,350,-37
283325329,-2676,868,15876,-277,473,-342
283328885,-3000,1168,15412,-65,23,-176
283332355,-2684,2076,15888,-91,25,-44
283335739,-3744,-516,15868,88,-106,127
283339209,-4028,336,16084,88,-61,133
283342505,-3144,-1196,16504,-211,-8,-326
283346152,-1956,1864,15480,-307,308,-323
283349840,-3432,1248,15736,-85,96,22
283353089,-3464,-416,15900,-120,169,-30
283356645,-3376,1944,15548,63,194,203
283360029,-3196,-1352,16772,-4,162,180
283363499,-3804,-104,16148,-141,328,-230
283367142,-2552,2080,15776,-295,91,-479
283370699,-3104,1092,15496,43,-153,87
283374107,-3212,1780,14864,-74,-26,-168
283377639,-3680,-576,16296,152,-228,123
283381196,-3584,456,15532,-156,293,108
283384665,-2204,-52,16136,-191,-23,-418
283388222,-3304,756,16048,-287,433,-139
283391779,-2944,1904,15768,-134,190,-56
283395336,-2916,1052,15240,5,-28,60
283398569,-3944,1576,15676,22,216,254
283401929,-3344,-1368,16868,-21,-12,-82
283405486,-3236,912,15468,-126,63,-153
283408955,-3052,1028,15740,-168,-68,-302
283412599,-2404,1676,15764,74,-191,25
283416017,-3416,732,15392,-125,119,213
283419452,-3636,-1468,16728,-73,227,-208
283423120,-4288,824,16404,9,271,163
283426306,-2580,-348,16176,-250,286,-420
283429949,-2936,1152,15096,-106,216,-240
283433593,-3052,2428,15968,-45,-66,127
283437063,-3300,552,15616,115,-176,172
283440533,-3880,912,15408,1,65,28
283443569,-2996,-748,16336,-156,-85,-317
283447261,-2416,1128,15568,-242,278,-301
283450856,-3416,1592,15740,-125,45,-261
283454412,-2768,1136,15384,-10,141,79
283457796,-4060,892,16304,5,216,143
283461006,-3564,-1212,16820,-160,264,-90
283464649,-3508,264,15840,53,259,121
283467945,-2764,124,16360,-296,13,-412
283471444,-3236,964,15516,145,-119,157
283474886,-3116,1644,15324,-4,-82,-22
283478269,-3656,-1056,16676,52,-100,17
283481739,-2576,712,15672,-222,352,-11
283485209,-2400,464,15624,-146,-26,-313
283488766,-2444,1256,15276,-235,376,-162
283492409,-2828,2128,15576,-40,84,81
283495706,-3732,-1236,16652,14,98,159
283499112,-4200,768,16012,-8,216,140
283502385,-2964,-276,16336,-262,52,-414
283505942,-2844,1308,15468,-134,63,-97
283509412,-2960,1656,15320,22,-152,-37
283512882,-3004,1012,15796,155,-136,157
283516474,-3572,364,15724,-181,118,194
283519909,-3224,-1244,16712,-128,248,-331
283523664,-2804,1044,15860,-156,357,16
283527109,-2608,788,15840,-219,274,-377
283530666,-3048,684,15300,-68,193,-200
283534136,-3488,2444,15588,39,-36,247
283537519,-3932,-1960,16784,122,-8,188
283540989,-4076,516,15856,-45,14,-37
283544286,-2956,44,16204,-131,-29,-317
283547816,-2228,1556,15644,-186,68,-233
283551312,-3268,1792,15364,-133,99,177
283554782,-3344,32,15796,32,268,116
283557992,-4072,616,16420,-112,239,8
283561288,-2632,196,15960,-234,394,-351
283564845,-3132,676,15700,-120,114,-268
283568402,-3296,2676,15680,-174,15,-208
283571983,-3516,-80,15492,91,-95,168
283575255,-4064,660,15808,40,37,27
283578378,-2980,-368,16416,-95,12,-187
283581848,-2108,1324,15396,-206,123,-307
283585492,-3332,1812,15500,-75,83,-150
283588962,-3140,492,15568,32,95,96
283592085,-4016,1016,16176,-21,325,157
283595555,-3448,-1300,16548,-147,251,-103
283599308,-3096,580,15688,-73,233,-78
283602668,-2520,1428,15828,-213,40,-239
283606225,-3480,72,15632,10,-159,-2
283609435,-3080,1840,14996,44,-4,48
283612645,-3700,-1460,16760,-27,-116,-104
283616378,-2248,1172,15488,-203,360,-160
283620053,-2828,856,15772,-131,-37,-150
283623600,-2444,1508,15732,-200,276,-121
283627219,-2864,2172,15544,-142,311,-190
283630862,-3500,-92,15788,12,53,158
283634072,-4092,600,16000,-27,343,30
283637368,-3776,-1796,16832,-180,37,-307
283641012,-2684,1404,15404,-67,-12,-126
283644568,-2852,1232,15824,-119,-72,-159
283648260,-3536,112,16200,9,-148,-27
283651509,-3272,1376,15420,-170,243,205
283655065,-2704,-1112,16352,-17,228,-45
283658622,-3628,536,16136,-212,405,-113
283662179,-2840,1152,15860,-251,351,-346
283665822,-2816,1064,15312,-54,117,-171
283669379,-2908,2380,15772,-85,-29,24
283672787,-3804,-1220,16288,79,-30,86
283676146,-3748,664,15772,68,62,60
283679269,-3176,-916,16524,-128,-131,-297
283682999,-2292,1804,15644,-254,347,-271
283686642,-3256,1484,15732,-101,39,80
283690025,-3544,-740,16340,-46,162,81
283693409,-3780,1120,15748,-37,256,164
283696902,-2760,-760,16336,-90,184,-10
283700349,-3692,212,16048,-141,337,-161
283703905,-2824,1908,15816,-296,8,-441
283707376,-2976,1228,15624,99,-108,114
283710846,-3604,1208,15328,56,-54,116
283714229,-3816,-1020,16696,106,-137,3
283717699,-2580,484,15636,-322,372,-302
283721291,-2316,168,15708,-111,-36,-359
283724837,-2348,1608,15208,-300,462,-158
283728456,-2688,1916,15600,-88,132,-5
283731839,-3820,-672,16604,46,11,101
283735136,-4168,596,15956,7,203,188
283738345,-3016,-208,16492,-260,75,-489
283741902,-3068,1136,15616,-112,4,-126
283745372,-3008,1588,15532,-69,-95,-83
283748891,-3716,-724,16476,115,-145,142
283752399,-3516,372,15676,-171,183,88
283755782,-2368,64,15976,-96,304,-287
283759165,-3008,1104,16112,-310,356,-187
283762809,-2800,1760,15796,-183,329,-312
283766452,-3172,912,15424,-34,11,50
283769662,-4044,1356,15880,11,-40,278
283773070,-4076,-2128,16684,-76,130,-147
283776689,-3428,1132,15536,20,-28,67
283779985,-3120,-1012,16364,-131,44,-348
283783629,-2492,2336,15496,-312,184,-412
283787272,-3424,1644,15432,-28,89,347
283790656,-3680,-1584,16844,-7,261,69
283794039,-3860,1112,16100,-71,238,110
283797532,-3040,-392,16248,-306,409,-397
283801152,-3136,572,15500,-153,174,-300
283804709,-3160,2520,15464,-167,54,-267
283808266,-3452,392,15544,95,-172,159
283811649,-3944,732,15672,64,-89,74
283814859,-3652,-1208,16508,-91,-63,-133
283818502,-2076,1188,15520,-256,209,-340
283822189,-2792,1000,15708,-121,96,-195
283825703,-3096,612,15596,-200,222,-100
283829259,-3012,2084,15272,1,227,177
283832556,-3496,-1424,16816,9,68,132
283835852,-4064,476,16216,-10,295,44
283839149,-2688,512,16060,-271,10,-390
283842619,-3180,860,15512,-33,-75,-64
283846006,-3172,1804,15220,13,-75,15
283849347,-3748,-1168,16568,24,-73,-60
283852769,-3564,228,15816,-177,356,-58
283856238,-2676,588,15908,-152,-7,-283
283859708,-2456,1592,15700,-157,324,-84
283863265,-2896,2040,15532,-86,164,61
283866649,-3428,496,15900,71,45,167
283869858,-4044,476,16144,-52,286,69
283873179,-2644,232,16252,-225,5,-400
283876538,-3076,1024,15592,-72,58,-109
283880008,-3144,1768,15268,-10,-151,-40
283883565,-3180,852,15908,169,-139,185
283887035,-3572,88,15892,-174,236,-14
283890418,-2412,436,15632,-166,217,-378
283893975,-2640,1304,15856,-268,278,-142
283897643,-2804,748,15984,-218,260,-302
283901175,-3264,748,15376,28,65,136
283904385,-3952,796,15948,22,20,295
283907595,-3992,-1744,16828,-117,165,-228
283911325,-2964,1080,15384,-42,17,-74
283914708,-2848,240,16200,-156,-36,-305
283918265,-3088,1192,15764,-145,67,-197
283921848,-3184,1648,15428,-149,134,204
283925413,-3140,-1404,16816,48,289,64
283928762,-4084,504,16592,-151,292,-11
283932232,-2652,476,16060,-197,366,-285
283935788,-3008,940,15560,-105,70,-234
283939258,-3324,2316,15704,-134,-19,-133
283942902,-3528,-140,15684,96,-47,166
283946289,-3940,456,15900,59,-112,98
283949631,-3480,-1312,16484,-81,18,-247
283953138,-2088,1604,15688,-331,321,-280
283956782,-3164,1312,15708,-54,85,-14
283960165,-3336,-180,15860,-132,212,-45
283963722,-3324,1836,15440,16,152,203
283967105,-3116,-1368,16468,12,243,101
283970575,-3820,220,16088,-88,218,-112
283974070,-2544,1524,15892,-247,116,-455
283977688,-2796,1380,15368,-14,-139,24
283981158,-3264,1660,15108,-40,-164,-83
283984715,-3840,-548,16544,104,-60,126
283988185,-3220,296,15832,-147,181,119
283991655,-2436,-400,16052,-188,143,-392
283995299,-3444,752,16168,-275,392,-163
283998880,-2916,1444,15788,-123,250,-153
284002499,-2872,1492,15240,-47,50,-5
284005795,-4020,1348,15712,38,105,249
284009179,-3956,-1664,16576,-36,131,-133
284012822,-3236,972,15604,-128,10,-97
284016206,-3228,-712,16296,-138,6,-302
284019676,-2380,1900,15564,64,-238,-13
284023169,-3536,1780,15464,-95,103,213
284026650,-3660,-1456,16812,-83,280,-181
284030259,-4120,984,16188,-46,183,187
284033642,-2616,-516,16096,-261,416,-419
284037286,-3384,724,15756,-123,115,-223
284040842,-3016,2412,15792,-214,69,-328
284044399,-3312,804,15476,97,-182,196
284047885,-3852,760,15668,56,-135,31
284051079,-3716,-1200,16504,-47,-17,-103
284054723,-2488,840,15592,-273,203,-333
284058279,-2696,880,15680,-150,107,-242
284061836,-2760,972,15236,-231,248,-92
284065306,-2800,1852,15548,-53,245,30
284068689,-3524,-1012,16560,7,86,202
284072010,-4332,-120,16200,-35,296,54
284075369,-2752,836,16088,-288,23,-350
284078839,-3324,384,15628,-30,-112,-15
284082309,-2912,1932,15252,-42,-6,-69
284085692,-3888,-1248,16604,183,-271,181
284089336,-3628,-140,15904,-151,345,1
284092719,-2408,588,15724,-246,194,-437
284096279,-2520,1532,15876,-202,279,-127
284099944,-2888,728,15924,-194,341,-256
284103476,-3216,620,15448,32,-1,146
284106686,-4172,776,15896,67,109,327
284109982,-3912,-1816,16984,-117,2,-275
284113539,-2964,1208,15564,-105,49,-135
284117096,-2808,552,16196,-168,-113,-279
284120739,-3012,884,15740,-96,-25,-182
284124233,-3412,1820,15292,-149,173,282
284127805,-3536,-688,16252,52,191,77
284131063,-4116,508,16276,-184,419,-15
284134533,-2956,508,16116,-225,262,-293
284138089,-2936,1004,15392,-101,182,-191
284141733,-2780,1796,15976,-137,-38,-115
284145376,-3616,-448,16084,123,-47,121
284148895,-3520,1452,15092,15,36,53
284152056,-3244,-1220,16516,-90,-114,-225
284155786,-2832,252,15808,-287,433,-241
284159343,-3216,1368,15756,-69,-46,-10
284162813,-2272,1648,15260,-115,209,-33
284166370,-3228,2008,15596,8,94,231
284169580,-3020,-1524,16416,18,161,208
284173074,-3872,-240,16288,-136,342,-219
284176693,-3160,-684,16676,-303,24,-494
284180250,-2952,1232,15480,53,-88,110
284183633,-3052,1564,15840,-91,-105,-121
284187277,-3684,-528,16480,194,-159,132
284190833,-3584,408,15596,-179,272,135
284194303,-2148,-192,15904,-146,243,-236
284197971,-3220,900,16140,-250,462,-130
284201504,-2596,-48,16076,-270,312,-388
284205060,-3044,1128,15348,50,32,62
284208270,-3880,1512,15864,-25,28,191
284211653,-4004,-1572,16568,31,21,-58
284215036,-3220,836,15712,-200,54,-156
284218507,-3088,-516,16316,-146,-81,-337
284222173,-2564,1676,15512,40,-64,20
284225447,-3296,1832,15296,-84,54,166
284228865,-3644,-1388,16748,-63,307,-152
284232473,-3976,980,16056,-41,270,135
284235857,-2820,-648,16068,-237,342,-383
284239500,-3180,520,15900,-149,304,-316
284243057,-3168,2560,15704,37,-99,223
284246489,-3460,316,15528,141,-82,174
284249823,-3856,888,15424,7,-18,39
284252946,-3000,-752,16348,-140,19,-366
284256503,-2204,996,15716,-314,252,-347
284260060,-3284,1748,15384,-111,-42,-233
284263703,-2868,852,15520,6,220,86
284266826,-3864,1216,15944,-22,204,162
284270296,-3816,-1216,16808,-51,329,26
284273791,-3128,184,15976,-185,210,-355
284277323,-2428,964,15836,-225,38,-367
284280793,-3128,476,15576,116,-172,159
284284263,-3076,1844,15248,-2,-134,-29
284287733,-3868,-1324,16568,2,-45,-36
284291116,-2568,780,15632,-195,250,-88
284294586,-2580,488,15668,-136,120,-274
284298168,-2692,1052,15384,-247,267,-158
284301786,-2688,2152,15304,-44,263,82
284305170,-3412,476,15612,32,39,149
284308380,-3964,772,16028,-13,210,67
284311676,-2880,-16,16172,-256,44,-394
284315146,-2932,1216,15480,-119,-73,-139
284318790,-3048,1788,15352,-11,-61,11
284322196,-3008,920,15796,97,-215,123
284325556,-3464,292,15840,-126,329,-4
284328974,-2432,284,16040,-190,191,-351
284332496,-2652,1484,15996,-252,316,-175
284336140,-2752,836,15980,-216,382,-276
284339696,-3248,664,15612,36,-23,130
284342993,-3996,960,15968,50,99,286
284346206,-3904,-2132,16872,-89,25,-246
284349808,-2912,1320,15464,-29,49,-53
284353143,-3004,136,16224,-170,-33,-307
284356699,-3020,1260,15736,151,-228,142
284360256,-3244,1740,15264,-137,244,213
284363813,-3324,-1376,16816,8,192,39
284367109,-4236,712,16272,-92,390,93
284370406,-2776,-32,16048,-224,296,-413
284373987,-3004,1040,15844,-90,121,-280
284377519,-3588,2372,15664,0,37,319
284380729,-4008,-1940,16912,103,-129,129
284384373,-3804,624,15628,-58,146,-16
284387756,-3048,-164,16408,-102,-109,-193
284391486,-2096,1492,15324,-180,192,-308
284395130,-3076,1388,15576,-84,-25,-21
284398624,-3240,-256,15784,-91,155,-1
284401983,-3000,2112,15420,-56,242,111
284405453,-3396,-1572,16616,-145,278,-137
284409183,-3848,-248,16148,-136,400,-210
284412827,-3128,-772,16540,-328,48,-500
284416383,-2924,1248,15576,62,-90,88
284419680,-3088,1928,14932,-186,-35,-215
284423346,-3580,-216,16360,203,-193,197
284426880,-3292,616,15336,-205,315,179
284430385,-2420,-392,16076,-168,30,-411
284433907,-3440,840,16144,-259,466,-133
284437464,-2764,1796,15780,-133,190,-132
284441107,-2944,1172,15300,38,38,6
284444230,-3868,1764,15836,-2,102,246
284447662,-3668,-1524,16788,30,-29,-9
284450997,-3456,656,15592,-161,84,-163
284454467,-3004,1052,15936,-156,-112,-289
284458197,-2500,1788,15640,12,-59,-36
284461580,-3424,1008,15316,-143,29,195
284465050,-3688,-1432,16868,-22,310,-110
284468694,-4052,1108,15916,-69,313,141
284472188,-2700,-740,16076,-252,330,-397
284475807,-3272,608,15896,-154,337,-300
284479364,-2972,2312,15672,-246,-38,-325
284483007,-3252,748,15472,145,-89,177
284486391,-3844,1080,15448,-9,-97,-6
284489687,-3860,-1172,16512,25,-97,-15
284493157,-2508,720,15696,-324,285,-358
284496738,-2664,656,15768,-168,11,-298
284500184,-2584,1180,15220,16,216,89
284503480,-3704,1520,15772,-106,138,-11
284507037,-3860,-1068,16704,4,273,86
284510334,-3324,56,16108,-69,269,47
284513543,-2524,660,16128,-263,15,-399
284517013,-3248,512,15500,100,-153,144
284520483,-2888,1816,15580,-55,-117,-115
284524150,-3820,-1008,16564,98,-71,94
284527510,-3648,4,15772,-190,247,-12
284530842,-2472,320,15820,-121,94,-347
284534277,-2468,1436,15276,-294,347,-181
284537920,-2708,1760,15568,-88,239,-16
284541390,-3204,1204,15372,38,56,159
284544687,-3944,544,16028,-4,211,168
284548044,-2892,-80,16208,-331,119,-464
284551540,-2924,1240,15496,-92,-68,-63
284555010,-2968,1660,15524,-54,-7,-108
284558480,-2908,1464,15732,107,-234,136
284562037,-3400,252,15564,-141,266,93
284565420,-3044,-1340,16896,-158,292,-346
284569150,-2984,1204,16064,-166,285,67
284572645,-2764,344,15924,-230,403,-342
284576177,-3048,996,15464,-103,122,-239
284579734,-3392,2424,15624,36,14,287
284583030,-4100,-1928,16824,105,-58,165
284586587,-4080,488,15840,-10,52,-17
284589883,-2856,-36,16212,-169,-58,-332
284593440,-2296,1360,15436,-158,77,-274
284597021,-3188,1808,15540,-96,81,-139
284600467,-3252,304,15420,23,148,94
284603677,-4180,636,16320,-53,312,73
284606973,-2656,32,16020,-222,372,-247
284610443,-3096,980,15612,-82,129,-194
284613913,-3264,2244,15692,-215,90,-271
284617470,-3272,608,15520,118,-162,193
284620943,-3796,580,15820,88,-32,98
284624173,-3528,-1312,16636,-102,-101,-201
284627967,-2260,1296,15472,-222,315,-126
284631645,-2892,744,15792,-115,-3,-172
284635080,-2448,1732,15564,-206,228,-109
284638723,-2844,1988,15420,-9,209,151
284642107,-3752,-120,15860,34,39,145
284645403,-3976,336,16196,-8,309,17
284648661,-2592,752,16136,-274,-25,-353
284652170,-2672,1524,15500,-13,-67,-66
284655640,-3140,1872,15268,-9,-83,48
284658936,-3780,-1252,16708,167,-208,156
284662580,-3548,-176,15924,-206,404,-98
284666137,-2740,-892,16540,-209,108,-402
284669780,-2532,1448,15828,-214,369,-38
284673361,-2716,956,15868,-252,338,-332
284676894,-3472,600,15620,-31,-24,-126
284680364,-3864,1668,15724,32,157,315
284683747,-3856,-1688,16976,9,-20,-21
284687130,-3756,584,15752,-17,116,-61
284690513,-2844,712,16240,-175,-90,-274
284694070,-2204,1964,15424,-34,-64,-100
284697651,-3288,1412,15272,-97,152,68
284701010,-3416,-676,16252,-14,194,9
284704307,-4024,524,16476,-184,429,-1
284707690,-2688,592,16004,-222,289,-296
284711247,-2784,1228,15504,-92,162,-238
284714803,-2660,2584,15696,-71,-102,38
284718273,-3848,-1104,16208,82,-3,79
284721593,-3808,816,15744,41,-6,59
284724693,-3076,64,16320,-79,-99,-244
284728076,-2032,1896,15324,-130,48,-231
284731671,-3236,1452,15292,-57,-16,51
284735016,-3312,-312,16040,31,313,35
284738312,-4336,372,16400,-123,254,52
284741696,-2588,740,15800,-291,472,-373
284745253,-3120,1112,15424,-60,48,-156
284748771,-2648,1460,16104,-140,-19,-146
284752366,-3416,88,15548,70,-46,128
284755576,-3912,464,15780,83,-130,105
284758959,-3204,-1156,16548,-81,25,-249
284762516,-2128,1528,15488,-322,347,-270
284766159,-3116,1288,15612,-53,28,-47
284769543,-3120,208,15708,-158,291,-66
284773037,-3240,1932,15488,64,147,247
284776396,-3108,-1608,16784,-7,232,124
284779866,-3944,372,16024,-74,229,-101
284783336,-2676,1344,15796,-201,61,-401
284786893,-2760,1424,15580,-38,-144,-27
284790449,-3228,1864,14928,-54,-153,-150
284794093,-3636,-276,16532,120,-104,163
284797674,-3392,800,15464,-154,145,182
284801120,-2496,-420,16100,-195,123,-403
284804763,-3684,740,16076,-276,390,-96
284808233,-2776,1220,15912,-216,348,-379
284811877,-2680,1588,15228,-76,-11,-38
284815346,-4008,1344,15720,72,-85,264
284818730,-3916,-1804,16652,-62,133,-126
284822397,-3136,1012,15536,15,-59,64
284825670,-3048,-736,16468,-148,21,-351
284829227,-2272,2048,15660,-318,240,-369
284832905,-3216,1756,15340,-55,81,195
284836253,-3684,-1192,16600,-32,233,87
284839723,-3856,1104,16108,-5,204,164
284843107,-2740,-696,16232,-315,402,-399
284846798,-3296,596,15728,-135,173,-239
284850307,-2988,2240,15956,-181,43,-336
284853864,-3316,860,15544,50,-158,136
284857247,-3776,920,15360,21,-118,22
284860543,-3612,-1000,16656,0,-54,-33
284863927,-2428,644,15540,-301,298,-327
284867483,-2476,812,15840,-92,15,-283
284870870,-2476,1092,15348,-30,114,38
284874274,-2664,2024,15340,-40,198,33
284877633,-3808,-1096,16588,-84,225,77
284881103,-3268,160,16056,-3,233,59
284884313,-2748,404,16304,-283,11,-383
284887783,-3224,592,15656,108,-155,121
284891257,-2992,1976,15344,-20,-29,-33
284894723,-3780,-1140,16744,74,-131,-3
284898217,-3564,208,15828,-187,353,46
284901576,-2256,244,15556,-160,-49,-401
284905133,-2536,1460,15088,-251,336,-155
284908776,-2772,1992,15636,-94,169,24
284912160,-3232,680,15416,45,-5,106
284915369,-4168,872,15896,-39,265,153
284918753,-2820,-452,16528,-248,63,-458
284922333,-2848,1204,15504,-119,62,-155
284925866,-3056,1736,15620,-176,-142,-286
284929596,-2936,1132,15736,167,-149,166
284933188,-3256,1612,15232,-152,169,201
284936710,-3276,-1384,16920,-81,224,-271
284940353,-4180,380,16500,-160,432,20
284943737,-2700,672,15728,-245,290,-366
284947343,-3116,1156,15424,-10,159,-184
284950850,-3412,2308,15700,-165,-10,-138
284954494,-3552,-132,15676,142,-101,173
284958050,-3436,1568,15140,44,0,106
284961260,-3276,-1276,16676,-107,-87,-264
284964990,-2956,180,15728,-259,401,-241
284968547,-3040,1276,15636,-97,-34,-59
284972042,-2396,1620,15264,-116,216,-56
284975574,-3032,2088,15484,3,139,164
284978870,-3300,-1456,16704,72,135,224
284982340,-3948,-228,16412,-168,362,-182
284985984,-3084,-708,16912,-325,64,-511
284989541,-2920,1196,15472,108,-84,103
284993010,-3072,1244,15880,-130,-70,-151
284996679,-3616,-280,16468,72,-192,69
285000037,-3516,528,15636,-178,249,130
285003507,-2356,-288,16220,-166,57,-412
285007064,-3492,660,16144,-304,480,-152
285010621,-2732,1784,15756,-308,316,-413
285014264,-2872,928,15144,27,48,62
285017387,-3724,1816,15720,42,87,254
285020684,-3540,-1448,16936,45,26,0
285023917,-3336,712,15604,-197,75,-153
285027364,-2924,1124,15820,-30,-105,-146
285031007,-2360,1548,15692,13,-92,15
285034338,-3336,1056,15528,-137,137,156
285037860,-3640,-1292,16728,-5,319,-80
285041330,-3700,428,16388,-251,366,-117
285044887,-2708,-568,16160,-253,368,-384
285048633,-2684,1480,15020,-189,279,-310
285052174,-3092,2596,15648,20,-75,168
285055557,-3900,-1536,16336,136,-97,170
285059114,-3824,1072,15468,42,-80,46
285062411,-3152,-988,16424,36,-68,-58
285065794,-2388,828,15700,-354,257,-392
285069351,-3216,1856,15504,-60,89,160
285072758,-2888,976,15164,-34,196,79
285076030,-3832,1212,15784,30,187,187
285079414,-2840,-664,16448,-105,343,-59
285082970,-3336,560,15656,-127,190,-229
285086527,-2928,1968,15828,-218,82,-389
285090084,-3068,1152,15544,60,-194,109
285093554,-3092,1872,15384,73,-136,66
285096962,-3828,-1212,16584,-46,-13,-75
285100494,-2712,696,15688,-119,201,-19
285103964,-2436,304,15948,-221,137,-334
285107521,-2632,1252,15916,-252,270,-170
285111164,-2732,2136,15684,-23,242,72
285114547,-3296,612,15580,28,32,150
285117757,-4068,864,15948,10,233,124
285121057,-2780,-304,16404,-269,41,-425
285124634,-2992,1132,15480,-99,-57,-119
285128167,-3008,1632,15564,-50,-66,-75
285131637,-2924,1256,15596,107,-256,117
285135233,-3564,380,15652,-81,164,240
285138577,-3172,-1452,16696,-208,212,-317
285142307,-2952,1148,15952,-82,282,38
285145691,-2692,8,16016,-275,349,-376
285149122,-2916,1372,15152,94,-27,121
285152457,-3604,2528,15716,62,77,392
285155753,-4056,-2188,16920,-132,81,-273
285159397,-3780,980,15532,22,132,-5
285162607,-3164,-488,16452,-170,-116,-349
285166337,-2128,1568,15632,-205,164,-319
285169981,-3308,1848,15340,-131,108,250
285173562,-3220,0,15632,29,168,67
285176574,-4160,736,16364,-104,309,93
285179957,-2564,148,15860,-265,324,-398
285183513,-3120,816,15608,-60,228,-236
285186984,-3172,2452,15768,-3,-45,206
285190367,-3396,304,15564,157,-134,221
285193837,-3940,736,15548,21,5,-7
285196897,-3116,-648,16436,-114,-36,-325
285200516,-2168,1164,15584,-295,241,-333
285204160,-3364,1652,15492,-107,-74,-191
285207804,-3024,624,15392,-17,264,85
285211100,-4096,1028,16052,-26,127,120
285214570,-3520,-1476,16908,-138,380,-105
285218300,-3856,768,15892,-63,276,28
285221620,-2728,448,16112,-199,43,-337
285225067,-3176,928,15560,-127,11,-142
285228537,-3236,1984,15052,54,-127,73
285231920,-3628,-1332,16584,190,-159,168
285235599,-3468,264,15872,-220,227,-105
285239120,-2844,-928,16260,-164,179,-356
285242764,-2516,1436,15796,-237,286,-175
285246456,-2664,1412,15860,-224,259,-248
285250051,-2952,1252,15124,-7,104,-134
285253521,-3576,2140,15524,42,16,305
285256817,-3780,-1904,16884,103,-12,90
285260287,-3896,480,15860,-115,65,-134
285263757,-2988,596,16148,-140,-66,-286
285267314,-2192,1748,15580,-109,7,-148
285270784,-3288,1772,15292,-95,8,41
285274018,-3608,-696,16076,47,317,45
285277290,-4004,528,16328,-152,290,-42
285280760,-2676,720,15828,-239,429,-342
285284317,-3044,1112,15308,-97,62,-165
285287787,-3576,2308,15736,-118,-74,-132
285291431,-3628,-340,15924,107,-26,121
285294900,-3404,1360,15180,64,-135,111
285298395,-3356,-1084,16568,-141,35,-256
285302014,-2984,216,15940,-302,294,-320
285305571,-3008,1524,15612,-50,107,-18
285309041,-2388,1556,15160,-110,159,-7
285312511,-3352,1972,15564,42,188,225
285315894,-3840,-932,16384,-71,264,48
285319277,-3812,512,15892,-38,203,-95
285322684,-2576,1344,16124,-240,156,-425
285326304,-2800,1508,15392,2,-176,-2
285329601,-3196,1700,15048,-24,-111,-49
285333157,-3716,-600,16388,97,-154,73
285336575,-3192,272,15840,-128,184,145
285340011,-2336,-448,16112,-202,145,-442
285343654,-2300,1728,15188,-279,340,-122
285347346,-2660,1472,15888,-111,300,-134
285350941,-2760,1552,15140,-49,-4,-1
285354238,-3924,1364,15784,75,123,302
285357621,-3356,-1080,16728,-48,142,-128
285361264,-3340,828,15412,-89,7,-102
285364561,-2792,1168,15884,-148,27,-362
285368117,-2356,1924,15504,72,-201,7
285371439,-3380,812,15504,-62,105,173
285374797,-3812,-1356,16848,-110,289,-90
285378441,-3692,580,16424,32,149,176
285381737,-2548,-544,16064,-347,470,-434
285385381,-2768,1140,15160,-128,155,-266
285389024,-2920,2380,15920,-25,22,100
285392408,-4064,-1300,16196,70,-152,164
285395968,-3672,1040,15380,80,25,89
285399199,-3228,-1116,16608,-170,-54,-361
285402904,-2468,880,15464,-258,246,-310
285406461,-3244,1604,15300,-94,55,-273
285409931,-2716,1168,15248,-33,113,40
285413314,-3784,1272,15828,5,135,142
285416611,-3868,-1332,16724,-146,303,-35
285420254,-3572,348,15932,34,180,119
285423574,-2848,-172,16664,-304,121,-441
285427194,-3004,1244,15412,-144,-23,-167
285430838,-3188,1952,15288,52,-58,54
285434134,-3676,-1108,16572,27,-174,-29
285437726,-3576,448,15868,-155,273,15
285441074,-2328,28,15668,-156,14,-353
285444458,-2940,1156,15972,-278,321,-224
285448150,-2580,2160,15716,-267,410,-360
285451745,-3068,744,15368,19,-20,112
285455041,-4016,1296,15812,2,272,202
285458338,-3180,-900,16692,-78,-4,-187
285461808,-3036,1012,15504,-133,88,-166
285465364,-2964,36,16320,-156,-92,-306
285468834,-2704,1356,15648,125,-153,89
285472329,-3516,1788,15484,-133,128,235
285475861,-3452,-1508,16932,-103,248,-239
285479591,-4244,588,16436,-77,348,89
285482888,-2544,72,16036,-281,300,-410
285486358,-3064,956,15384,-58,182,-214
285489828,-3140,2472,15768,-10,-34,194
285493298,-3420,292,15608,137,-135,189
285496792,-3936,536,15600,10,63,44
285499891,-2880,-396,16152,-160,-56,-400
285503534,-2272,1436,15620,-223,219,-271
285507178,-3228,1636,15656,-138,-12,-202
285510821,-2928,800,15332,15,268,88
285514031,-4084,844,16068,0,116,194
285517241,-3680,-1428,16976,-153,342,-152
285520975,-3236,604,15720,-108,294,1
285524291,-2720,600,16136,-219,36,-373
285527737,-3252,748,15756,88,-103,166
285531121,-3768,732,15388,16,-132,41
285534417,-3780,-1192,16732,13,-52,-66
285537922,-2400,892,15780,-215,310,-74
285541357,-2552,608,15612,-89,44,-251
285544741,-2708,1008,15156,-52,106,65
285548184,-2664,2244,15396,11,153,110
285551507,-3796,-1444,16676,-164,313,-57
285555151,-4072,760,16088,0,194,102
285558360,-2904,-100,16352,-275,110,-400
285562004,-3032,1144,15600,-123,-58,-101
285565647,-2940,1724,15508,-12,-22,-49
285569117,-2976,1164,15728,133,-192,179
285572699,-3684,48,15856,-166,302,28
285575971,-2264,420,15692,-212,258,-386
285579527,-2860,1168,15872,-255,345,-120
285583171,-2736,476,16116,-200,367,-340
285586728,-3136,956,15356,-109,106,-236
285590284,-3464,2368,15528,75,59,301
285593581,-3980,-1808,17028,-115,14,-225
285597249,-4068,704,15808,18,32,27
285600347,-3012,-140,16244,-188,-17,-362
285603991,-2052,1584,15488,-204,38,-243
285607548,-3480,1696,15252,-115,191,223
285611104,-3284,96,15632,-10,136,81
285614314,-4320,740,16288,-6,281,169
285617611,-2800,-272,15792,-314,357,-474
285621258,-3024,988,15668,-97,99,-269
285624661,-3332,2428,15872,-152,59,-192
285628194,-3528,76,15640,66,-163,105
285631491,-3940,868,15428,30,112,61
285634700,-3008,-476,16364,-83,-99,-153
285638292,-2212,1296,15488,-228,217,-317
285641900,-2716,864,15672,-154,66,-144
285645371,-3184,564,15364,53,161,106
285648715,-3984,896,16108,-1,238,138
285651964,-3676,-1588,16820,-186,263,-126
285655694,-3272,564,15728,14,271,11
285658904,-2512,540,15984,-267,7,-360
285662287,-3196,720,15664,137,-102,145
285665757,-2836,1896,15344,-85,-78,-63
285669227,-3884,-1224,16656,121,-104,73
285672808,-3548,-488,15848,-226,399,-152
285676427,-2316,1320,15476,-120,-35,-204
285680071,-2796,1160,15756,-105,282,11
285683541,-2696,2300,15492,-293,306,-341
285687184,-3064,816,15392,108,38,211
285690481,-4196,556,16136,50,115,331
285693777,-3908,-1884,17040,-160,61,-304
285697445,-2768,1376,15320,-66,157,-55
285700890,-3040,244,16312,-108,-128,-280
285704534,-3100,992,15972,-53,31,-171
285707917,-3368,1644,15260,-147,96,256
285711387,-3096,-1276,16824,39,249,24
285714771,-4048,736,16220,-136,325,39
285718154,-2732,288,16060,-214,319,-359
285721734,-2852,1104,15452,-137,218,-287
285725354,-3468,2444,15548,-126,-85,-57
285728911,-3928,-788,15960,97,28,119
285732207,-3892,636,15804,-57,36,-36
285735504,-2976,-44,16188,-84,-37,-238
285739009,-2076,1664,15500,-189,75,-282
285742531,-3172,1172,15880,-75,-28,-28
285746004,-3388,-72,15944,-8,316,46
285749259,-4132,776,16160,26,82,163
285752420,-2756,-88,16124,-190,430,-160
285755977,-2944,772,15680,-199,148,-331
285759533,-2544,1692,15780,-132,17,-180
285763090,-3536,-268,15688,94,-80,160
285766474,-3280,1888,14960,51,-103,41
285769857,-3580,-1420,16564,-99,-35,-167
285773525,-3396,-56,15940,-287,306,-226
285777057,-2852,1244,15764,-46,71,-102
285780527,-2436,1572,15400,-178,221,-47
285784084,-2816,2264,15444,-14,160,94
285787467,-3592,328,15728,46,174,285
285790763,-4100,-268,16348,-97,279,-52
285794234,-2348,1424,15772,-257,196,-443
285797902,-2972,1144,15504,15,-187,18
285801260,-3060,2072,15156,-111,-7,-295
285804817,-3412,484,16300,185,-277,245
285808287,-3272,968,15460,-150,147,228
285811757,-2484,-728,16248,-210,168,-479
285815401,-3940,468,16204,-203,303,-31
285818871,-2596,1268,15744,-199,364,-271
285822537,-2880,1120,15236,-55,15,-115
285825984,-3460,2308,15500,-77,-37,31
285829367,-3908,-952,16252,53,-2,51
285832577,-3600,696,15784,-91,53,-67
285835874,-2924,260,16108,-158,-55,-320
285839465,-2128,1856,15436,-20,-110,-136
285843074,-3280,1524,15416,-78,110,48
285846505,-3512,-608,16092,-27,207,-5
285849840,-4036,408,16340,-119,404,18
285853224,-2884,-976,16588,-311,376,-344
285856867,-2956,932,15408,-42,116,-175
285860337,-2716,1652,15916,-167,80,-134
285863894,-3600,-392,15840,19,-167,73
285867277,-3516,1480,15196,63,11,88
285870487,-3352,-1236,16608,-123,-80,-266
285874242,-3080,112,15852,-274,395,-275
285877774,-3008,1544,15524,-106,-7,-57
285881244,-2336,1480,15232,-89,167,-43
285884714,-3160,2008,15616,-6,143,163
285888097,-3736,-196,16056,18,148,230
285891480,-4132,-368,16308,-124,360,-164
285895124,-3096,-772,16800,-345,87,-524
285898705,-3004,1144,15444,118,-110,106
285902237,-3016,1132,15820,-123,-44,-226
285905881,-3560,-160,16448,82,-235,32
285909264,-3464,852,15548,-131,230,195
285912734,-2364,-560,16092,-74,237,-203
285916291,-3616,960,16416,-187,440,-59
285919761,-2764,1196,15736,-297,336,-408
285923428,-2536,1568,15036,-1,19,-62
285926701,-3912,1504,15656,0,4,236
285929824,-3564,-1424,16852,-18,15,-43
285933294,-3400,800,15612,-114,138,-84
285936764,-3108,860,15988,-173,-98,-376
285940356,-2232,2016,15388,13,-34,-36
285943704,-3400,1252,15132,-128,41,123
285947223,-3620,-968,16404,3,300,-83
285950470,-3904,504,16424,-257,361,-47
285953940,-2628,-712,16160,-283,349,-390
285957584,-2844,1232,15272,-124,321,-186
285961227,-2828,2108,16068,-93,-31,-35
285964697,-3796,-868,16048,90,-75,109
285968081,-3500,1280,15068,50,-87,84
285971402,-3272,-1204,16532,-122,42,-314
285975021,-2732,512,15608,-288,301,-287
285978577,-3256,1264,15620,-144,3,-368
285982047,-2428,1568,15092,-85,258,-13
285985517,-3536,1568,15700,-40,82,46
285988814,-3684,-1044,16456,-71,352,24
285992284,-3820,360,15916,-59,168,-102
285995757,-3136,-968,16764,-232,106,-425
285999422,-2792,1592,15260,-191,93,-223
286002954,-2872,1604,15664,2,-130,-51
286006337,-3796,-648,16560,72,-75,50
286009634,-3208,1092,15352,-157,154,143
286013190,-2364,-456,15936,-190,151,-432
286016834,-3116,1032,16072,-327,354,-162
286020478,-2796,1756,15680,-253,333,-392
286024144,-3044,916,15288,-34,76,11
286027331,-3760,1700,15672,21,-39,137
286030714,-4012,-1600,16672,-19,101,-21
286034271,-3328,664,15760,-140,13,-145
286037741,-3040,-448,16380,-160,28,-348
286041332,-2660,1696,15568,-254,168,-306
286044941,-3328,1600,15476,-101,143,134
286048600,-2956,804,15336,2,196,107
286051708,-4164,724,16180,25,224,176
286055004,-2632,-392,16176,-298,433,-416
286058648,-3228,656,15672,-119,120,-222
286062204,-3104,2140,15844,-63,65,13
286065501,-3144,920,15524,81,-145,137
286068884,-3704,880,15408,78,29,55
286072032,-3056,-900,16360,-182,-30,-333
286075651,-2544,768,15648,-252,220,-341
286079207,-3196,1636,15492,-136,111,-324
286082851,-2660,1208,15208,-30,148,64
286086234,-3844,1260,15884,0,180,114
286089530,-3776,-1372,16732,-149,223,-41
286093174,-3556,420,15940,13,242,118
286096495,-2804,-192,16492,-289,79,-439
286100027,-2988,1204,15680,87,-143,112
286103497,-3120,1536,15456,-30,-39,-50
286106967,-3752,-752,16468,67,-161,41
286110351,-3688,312,15640,-106,343,42
286113734,-2256,336,15676,-196,-42,-384
286117290,-2952,1204,15920,-228,386,-101
286120938,-2708,1864,15856,-148,199,-64
286124514,-2900,1216,15108,26,-11,93
286127787,-3968,1156,15752,11,207,253
286131171,-3216,-852,16624,-73,22,-176
286134641,-2952,988,15772,-143,91,-177
286138111,-3140,1620,15572,-149,-153,-261
286141880,-2876,1048,15896,127,-133,59
286145311,-3308,1856,15280,-180,149,197
286148916,-3548,-1548,17088,-65,213,-220
286152511,-4236,560,16212,-112,388,77
286155894,-2712,48,15796,-210,287,-354
286159364,-3056,664,15536,-78,236,-225
286162834,-3300,2596,15828,-21,-71,222
286166304,-3432,276,15768,150,-97,205
286169688,-3916,656,15668,2,22,14
286172748,-2892,-348,16296,-141,-66,-320
286176367,-2188,1220,15552,-237,241,-279
286180011,-3324,1676,15568,-112,-48,-200
286183654,-2988,716,15456,45,213,104
286186951,-3956,888,16132,-48,188,153
286190334,-3576,-1468,16696,-117,307,-89
286193977,-3252,564,15708,-53,331,4
286197212,-2688,528,16096,-227,-11,-350
286200744,-3144,816,15456,90,-91,156
286204041,-3020,2012,15076,14,-135,52
286207424,-3656,-1348,16856,10,-16,-105
286210981,-3480,128,15788,-261,285,-54
286214451,-2536,720,15628,-95,17,-277
286217834,-2712,1012,15388,-252,341,-179
286221501,-2824,2100,15480,-45,146,122
286224947,-3472,284,15828,43,118,153
286228244,-3944,892,15916,-14,191,82
286231540,-2804,-188,16224,-261,144,-405
286235184,-2916,1264,15284,-157,-70,-119
286238827,-2936,1672,15316,-101,-104,-250
286242592,-3280,996,15928,115,-159,140
286246031,-3412,1532,15252,-145,79,244
286249546,-2960,-1120,16720,-181,259,-352
286253228,-4204,472,16296,-102,299,66
286256611,-2720,332,16168,-235,309,-355
286260168,-2840,1396,15264,-157,111,-223
286263811,-2608,1824,15972,-93,-43,-79
286267281,-3632,-488,15988,53,5,88
286270404,-4072,632,15784,-44,23,-23
286273725,-2916,48,16188,-94,14,-267
286276997,-2124,1468,15572,-170,28,-253
286280554,-3160,1936,15192,-107,76,-93
286284024,-3368,16,15744,-2,193,102
286287234,-4160,484,16080,-100,342,69
286290617,-2912,248,15976,-216,367,-239
286294174,-2948,748,15544,-119,112,-277
286297755,-2680,1276,16148,-161,49,-245
286301287,-3344,328,15764,103,-155,145
286304757,-3196,1620,15080,66,-56,72
286308054,-3604,-1280,16728,-73,-110,-165
286311784,-3324,-76,15836,-238,309,-186
286315341,-2724,1040,15676,-74,35,-172
286318811,-2344,1572,15552,-210,228,-96
286322391,-3028,2268,15552,-134,243,-134
286326011,-3428,-152,15884,5,138,160
286329308,-3972,436,15900,16,82,257
286332517,-2796,436,16296,-158,133,-328
286336074,-2764,1340,15464,-92,-121,-90
286339631,-3004,692,16028,-74,-56,-222
286343136,-3160,584,15944,157,-231,172
286346619,-3344,1368,15368,-77,109,230
286350041,-2696,-1104,16548,-251,245,-460
286353771,-3812,756,16088,-199,299,-53
286357241,-2728,904,15920,-232,388,-321
286360798,-2932,1100,15436,-90,58,-172
286364268,-3476,2248,15416,-56,-59,-15
286367738,-3756,-868,16064,58,-26,83
286371038,-3868,572,15876,-25,23,-77
286374355,-2976,320,16144,-157,42,-268
286377801,-2112,1616,15536,-122,-38,-234
286381444,-3104,1696,15692,-76,79,48
286384741,-3580,-704,16080,9,200,32
286387950,-4052,588,16272,-122,389,11
286391334,-2704,576,15868,-280,325,-293
286394891,-3076,988,15480,-46,163,-215
