Time,Accel_X,Accel_Y,Accel_Z,Gyro_X,Gyro_Y,Gyro_Z
652321017,-2808,-196,16008,-85,56,-53
652324424,-2856,-208,16000,-51,117,-55
652327870,-2812,-116,16036,-111,138,-75
652331426,-2728,-224,16020,-99,38,-50
652334810,-2812,-196,15964,-82,171,-62
652338280,-2788,-268,16020,-89,56,-66
652341663,-2896,-288,15996,-72,137,-23
652345133,-2760,-156,15992,-85,63,-71
652348516,-2852,-192,15868,-84,110,-43
652352035,-2864,-224,16032,-99,127,-71
652355456,-2676,-212,16048,-89,34,-77
652358840,-2832,-172,16084,-80,176,-40
652362310,-2836,-184,15928,-96,73,-47
652365693,-2740,-216,16072,-61,142,-74
652369163,-2772,-232,16068,-98,66,-71
652372546,-2968,-192,15900,-74,112,-36
652376039,-2856,-232,15876,-110,115,-69
652379573,-2856,-168,16012,-86,51,-74
652382994,-2728,-248,16172,-94,192,-61
652386426,-2904,-176,16064,-93,65,-92
652389809,-2884,-268,15980,-74,158,-66
652393279,-2776,-160,15900,-112,143,-84
652396836,-2896,-288,16064,-98,56,-60
652400244,-2828,-200,16028,-88,195,-77
652403689,-2660,-244,16064,-94,39,-50
652407072,-2780,-160,15948,-86,183,-63
652410543,-2848,-128,16048,-115,43,-85
652414012,-2836,-256,16076,-79,167,-37
652417483,-2752,-204,16036,-132,120,-80
652421039,-2928,-192,15928,-77,89,-59
652424447,-2828,-216,16100,-111,190,-73
652427979,-2840,-244,15892,-88,66,-48
652431363,-2888,-164,15980,-70,169,-63
652434832,-2752,-184,15840,-95,73,-60
652438216,-2800,-300,16056,-65,97,-63
652441599,-2868,-236,15988,-119,86,-86
652445069,-2720,-172,16232,-76,66,-81
652448452,-2852,-228,15852,-128,164,-87
652452058,-2772,-252,16000,-95,67,-85
652455392,-2836,-144,16008,-78,164,-93
652458862,-2760,-212,16060,-76,47,-47
652462246,-2804,-112,15920,-82,138,-38
652465715,-2888,-268,16012,-104,60,-71
652469185,-2840,-276,15988,-59,59,-66
652472569,-2844,-124,15928,-137,136,-60
652476149,-2980,-200,15980,-105,42,-67
652479596,-2736,-216,15876,-104,193,-62
652483187,-2768,-272,15900,-103,41,-67
652486622,-2812,-280,16068,-79,160,-44
652490092,-2792,-300,16076,-114,117,-73
652493649,-2828,-248,15908,-56,105,-55
652497119,-2772,-184,15952,-121,154,-67
652500700,-2964,-160,15892,-77,51,-28
652504059,-2736,-188,15896,-88,183,-85
652507529,-2876,-168,15968,-52,34,-48
652510912,-2592,-164,16072,-92,118,-57
652514382,-2836,-204,15984,-93,103,-66
652517852,-2816,-276,16012,-111,70,-88
652521322,-2792,-164,15948,-78,140,-21
652524817,-2804,-260,16008,-103,62,-78
652528262,-2908,-264,15936,-71,136,-13
652531732,-2696,-156,16024,-115,122,-91
652535289,-2832,-112,16008,-41,86,-9
652538585,-2772,-296,16056,-153,152,-82
652542142,-2892,-232,15864,-37,59,-40
652545526,-2764,-224,15892,-122,152,-85
652549086,-2860,-340,15924,-91,20,-32
652552526,-2744,-172,15924,-65,172,-85
652555935,-2868,-280,15980,-105,67,-58
652559406,-2756,-172,15808,-70,129,-78
652562876,-2856,-192,16104,-91,127,-56
652566346,-2756,-232,15920,-61,74,-73
652569729,-2864,-184,16028,-80,162,-86
652573199,-2836,-212,15936,-99,57,-66
652576605,-2912,-208,15988,-45,115,-39
652580052,-2840,-188,16056,-119,65,-91
652583557,-2972,-288,16032,-79,72,-42
652586905,-2744,-164,16028,-127,156,-78
652590462,-2792,-168,15912,-73,70,-55
652593845,-2908,-244,15880,-87,171,-53
652597315,-2896,-200,16024,-96,40,-65
652600723,-2804,-276,15936,-73,106,-61
652604168,-2788,-272,15828,-122,86,-64
652607638,-2704,-244,15976,-68,43,-39
652611022,-2816,-268,15932,-103,155,-73
652614579,-2736,-220,15892,-95,32,-70
652617962,-2772,-156,16004,-73,162,-48
652621432,-2820,-156,15964,-133,102,-80
652625013,-2812,-328,15984,-58,127,-27
652628458,-2716,-188,16024,-104,164,-71
652632015,-2800,-72,15944,-90,65,-32
652635312,-2808,-196,15804,-84,196,-53
652638782,-2796,-240,15972,-75,54,-64
652642165,-2676,-200,16000,-70,178,-21
652645635,-2848,-308,16008,-103,62,-59
652649108,-2804,-272,15828,-80,142,-53
652652623,-2772,-100,16080,-111,143,-45
652656132,-2828,-228,16048,-104,57,-79
652659602,-2768,-172,15960,-76,168,-66
652663072,-2812,-180,15888,-99,57,-46
652666455,-2768,-172,16112,-45,126,-54
652669925,-2752,-264,16016,-134,89,-60
652673395,-2792,-220,15820,-77,61,-43
652676801,-2812,-240,16052,-98,150,-82
652680248,-2876,-176,16144,-84,48,-77
652683666,-2876,-340,15956,-70,181,-80
652687101,-2720,-240,16044,-114,93,-80
652690571,-2804,-244,15880,-67,144,-49
652694042,-2932,-284,15968,-124,139,-101
652697685,-2740,-144,16024,-74,85,-40
652701093,-2852,-212,15984,-94,169,-68
652704538,-2840,-276,15964,-77,60,-64
652707921,-2908,-212,15980,-110,185,-91
652711478,-2836,-252,16000,-97,51,-53
652714862,-2776,-152,15908,-80,137,-72
652718332,-2864,-184,16088,-127,116,-69
652721888,-2708,-216,15880,-81,57,-71
652725296,-2876,-132,16100,-92,153,-29
652728742,-2768,-84,15964,-91,69,-72
652732038,-2736,-160,16092,-71,146,-41
652735508,-2832,-236,15832,-102,57,-105
652739065,-2860,-212,15872,-78,109,-75
652742535,-2864,-240,15976,-107,138,-37
652746091,-2756,-192,15868,-93,62,-85
652749523,-2816,-216,16028,-89,163,-38
652752945,-2772,-244,15956,-96,33,-84
652756328,-2800,-284,16012,-54,174,-57
652759798,-2732,-184,15884,-126,117,-41
652763355,-2848,-192,16024,-62,96,-44
652766738,-2772,-248,15936,-100,192,-99
652770295,-2796,-216,15964,-61,38,-46
652773678,-2684,-204,15888,-78,209,-67
652777171,-2816,-76,16044,-69,41,-59
652780444,-2676,-188,16012,-87,178,-70
652783950,-2908,-280,15984,-110,68,-54
652787385,-2856,-244,16012,-69,152,-79
652790854,-2728,-388,16084,-106,138,-41
652794411,-2832,-256,16096,-78,76,-70
652797795,-2848,-208,16072,-90,176,-31
652801289,-2740,-132,16004,-105,32,-68
652804735,-2744,-228,15964,-38,150,-37
652808204,-2760,-188,15984,-87,66,-75
652811588,-2904,-296,16008,-69,101,-34
652815058,-2748,-228,16068,-113,134,-42
652818615,-2736,-276,16024,-87,59,-53
652821998,-2772,-200,15948,-108,172,-59
652825579,-2808,-212,16008,-107,45,-46
652829024,-2760,-228,15972,-55,145,-44
652832494,-2928,-172,16160,-109,117,-67
652836051,-2808,-280,16080,-68,93,-61
652839434,-2780,-292,16132,-131,161,-82
652842991,-2820,-180,16068,-78,73,-54
652846375,-2832,-152,16104,-73,181,-78
652849893,-2732,-232,15968,-113,48,-61
652853314,-2816,-200,16056,-90,164,-56
652856785,-2796,-72,15996,-118,72,-43
652860168,-2716,-212,15824,-54,137,-46
652863638,-2732,-160,16044,-84,123,-58
652867108,-2768,-240,15900,-80,85,-87
652870491,-2784,-184,15884,-61,201,-56
652873965,-2792,-256,15916,-84,52,-50
652877368,-2708,-252,15936,-69,138,-67
652880814,-2884,-216,15940,-100,38,-62
652884319,-2792,-200,15868,-53,112,-71
652887754,-2876,-184,15892,-125,77,-73
652891224,-2780,-216,15972,-70,61,-63
652894612,-2840,-176,16048,-120,160,-84
652898164,-2672,-124,15916,-93,38,-84
652901572,-2848,-200,16120,-82,168,-43
652905018,-2852,-176,15956,-107,41,-69
652908488,-2804,-176,15904,-63,110,-45
652911957,-2780,-208,16236,-116,85,-70
652915428,-2840,-216,16120,-83,86,-49
652918811,-2808,-180,16036,-121,116,-84
652922367,-2888,-216,15984,-87,38,-84
652925775,-2716,-372,16056,-95,170,-58
652929221,-2764,-312,15952,-101,62,-73
652932691,-2824,-228,16052,-74,125,-68
652936161,-2768,-264,15940,-137,123,-86
652939717,-2888,-232,15936,-62,67,-54
652943101,-2840,-248,16016,-103,187,-40
652946658,-2752,-236,16068,-89,64,-64
652950090,-2832,-228,16052,-71,176,-52
652953511,-2868,-304,16088,-80,43,-55
652956894,-2760,-200,16020,-76,185,-75
652960364,-2780,-232,15948,-101,91,-87
652963834,-2844,-216,16052,-64,139,-45
652967304,-2872,-116,15976,-108,138,-59
652970861,-2760,-148,16036,-94,44,-51
652974248,-2840,-232,15968,-65,180,-51
652977737,-2820,-252,15992,-72,58,-61
652981097,-2852,-212,15948,-76,136,-61
652984602,-2752,-264,16068,-107,56,-73
652988037,-2928,-248,16004,-69,109,-85
652991507,-2852,-144,15796,-123,107,-96
652995064,-2836,-156,15868,-80,62,-82
652998447,-2820,-308,15984,-97,168,-64
653001942,-2820,-252,16008,-88,37,-75
653005301,-2800,-140,15908,-71,174,-38
653008770,-2776,-132,15976,-116,113,-61
653012327,-2868,-328,16024,-57,92,-60
653015710,-2640,-196,15960,-123,154,-45
653019267,-2824,-164,16012,-89,47,-78
653022651,-2792,-204,15940,-72,162,-54
653026145,-2824,-148,16016,-97,46,-71
653029504,-2744,-260,15952,-74,156,-58
653032974,-2904,-216,15964,-105,100,-67
653036531,-2728,-176,15984,-88,88,-56
653039914,-2800,-212,16040,-104,138,-57
653043471,-2688,-208,16024,-76,79,-50
653046854,-2852,-208,15900,-86,166,-33
653050426,-2804,-244,15956,-82,23,-48
653053707,-2856,-200,15952,-72,128,-69
653057177,-2840,-192,15976,-112,60,-53
653060647,-2836,-172,15936,-57,72,-74
653064030,-2712,-192,16012,-118,106,-97
653067587,-2912,-260,15976,-78,33,-85
653070970,-2856,-192,15960,-118,171,-39
653074550,-2792,-184,15880,-117,51,-107
653078084,-2840,-256,16028,-76,173,-27
653081554,-2888,-244,15916,-112,70,-81
653085063,-2848,-192,16008,-60,141,-74
653088494,-2868,-128,15924,-107,128,-73
653092050,-2824,-168,15844,-70,104,-53
653095521,-2880,-240,16040,-88,177,-65
653098994,-2780,-300,15928,-112,52,-78
653102485,-2852,-184,15992,-59,114,-51
653105931,-2704,-152,15980,-109,88,-103
653109487,-2860,-244,16036,-79,73,-55
653112871,-2832,-208,16088,-104,136,-59
653116427,-2856,-204,15996,-100,58,-50
653119897,-2876,-248,16020,-100,190,-79
653123454,-2712,-292,15904,-89,63,-91
653126862,-2848,-260,16040,-62,148,-57
653130307,-2768,-272,15976,-130,113,-72
653133864,-2836,-232,15888,-64,116,-60
653137334,-2828,-204,15968,-125,169,-56
653140891,-2884,-228,15860,-97,50,-73
653144274,-2780,-172,16072,-59,174,-58
653147744,-2760,-252,16028,-95,46,-88
653151176,-2652,-212,16068,-49,109,-21
653154597,-2780,-216,15920,-95,92,-71
653157980,-2816,-276,16100,-68,120,-61
653161451,-2844,-192,15804,-127,163,-102
653165094,-2788,-164,16036,-101,42,-94
653168564,-2700,-132,16172,-62,170,-57
653172034,-2792,-200,15864,-117,42,-75
653175527,-2768,-176,15936,-66,99,-55
653178887,-2820,-184,16068,-134,93,-77
653182357,-2820,-284,15900,-87,37,-25
653185775,-2816,-200,15928,-106,174,-60
653189297,-2776,-244,15964,-92,45,-70
653192680,-2752,-324,15936,-86,169,-70
653196150,-2844,-216,16020,-93,82,-79
653199558,-2808,-276,15960,-62,127,-39
653203004,-2776,-200,16024,-117,157,-55
653206560,-2940,-240,16080,-65,48,-69
653209944,-2784,-268,15924,-63,191,-34
653213414,-2896,-232,16028,-102,40,-71
653216884,-2796,-240,15936,-52,127,-50
653220354,-2868,-104,16016,-115,76,-65
653223827,-2764,-284,15972,-83,54,-35
653227232,-2804,-200,16040,-120,162,-59
653230764,-2784,-200,16020,-90,59,-20
653234147,-2816,-212,15928,-66,157,-72
653237617,-2796,-184,16100,-74,45,-83
653241000,-2764,-184,15936,-66,107,-43
653244470,-2920,-212,15876,-122,77,-88
653247940,-2736,-156,16236,-83,76,-73
653251372,-2780,-156,15912,-125,148,-63
653254880,-2876,-228,15984,-98,58,-71
653258263,-2916,-272,16032,-79,198,-44
653261733,-2748,-172,16084,-110,66,-93
653265204,-2928,-208,16048,-62,100,-40
653268673,-2836,-200,16056,-120,122,-82
653272230,-2880,-184,16000,-44,108,-46
653275724,-2752,-232,15948,-85,181,-74
653279170,-2892,-312,15980,-98,50,-50
653282554,-2752,-244,15884,-97,168,-52
653286059,-2728,-152,15948,-117,54,-65
653289493,-2844,-200,16036,-56,157,-72
653292964,-2784,-240,16048,-102,99,-79
653296434,-2808,-204,15916,-63,89,-49
653299841,-2784,-276,16012,-123,188,-72
653303374,-2816,-264,15968,-58,66,-74
653306757,-2732,-192,16076,-73,153,-57
653310227,-2848,-228,15952,-101,68,-92
653313697,-2836,-244,15984,-67,108,-41
653317167,-2776,-168,15976,-117,113,-80
653320723,-2908,-272,16056,-84,50,-51
653324110,-2704,-188,15988,-128,141,-74
653327688,-2828,-244,15944,-90,32,-43
653331047,-2816,-240,15972,-81,188,-45
653334517,-2812,-80,15988,-109,76,-55
653337900,-2844,-228,16048,-74,142,-58
653341370,-2768,-152,15976,-138,131,-56
653344927,-2808,-300,15920,-61,64,-52
653348310,-2904,-268,16080,-99,170,-72
653351828,-2908,-292,15968,-74,56,-70
653355163,-2760,-212,15852,-109,167,-43
653358720,-2768,-204,15784,-120,65,-74
653362190,-2720,-200,15880,-61,159,-69
653365660,-2716,-284,15980,-101,120,-62
653369217,-2812,-188,15948,-88,37,-67
653372600,-2888,-216,15940,-88,176,-73
653376093,-2828,-232,15844,-99,65,-72
653379453,-2824,-292,15828,-61,138,-68
653382923,-2696,-268,15980,-101,67,-83
653386428,-2772,-244,16012,-61,83,-81
653389777,-2832,-276,15896,-116,135,-58
653393333,-2872,-216,15968,-53,65,-44
653396717,-2736,-188,16092,-87,175,-74
653400211,-2860,-276,15956,-96,75,-98
653403570,-2804,-152,16068,-54,167,-65
653407040,-2780,-216,15884,-121,97,-47
653410510,-2820,-312,16132,-69,86,-40
653413893,-2796,-172,15876,-120,135,-88
653417450,-2864,-216,15924,-100,21,-62
653420920,-2764,-256,15952,-85,162,-69
653424414,-2872,-200,15920,-113,68,-78
653427860,-2760,-260,16048,-71,120,-53
653431330,-2728,-244,16064,-103,144,-66
653434887,-2740,-264,16132,-63,54,-71
653438270,-2828,-204,15936,-66,169,-53
653441740,-2764,-276,15932,-91,42,-93
653445123,-2808,-248,16044,-56,131,-53
653448593,-2664,-164,16068,-118,86,-84
653452112,-2856,-200,16064,-79,61,-46
653455446,-2852,-188,15924,-117,143,-85
653459003,-2832,-236,15940,-90,65,-52
653462386,-2784,-160,16036,-98,143,-78
653465856,-2780,-220,15916,-105,45,-47
653469326,-2844,-160,15988,-63,159,-72
653472796,-2868,-184,15840,-113,128,-83
653476376,-2820,-200,16020,-70,101,-67
653479823,-2808,-216,16008,-119,146,-62
653483380,-2784,-164,16044,-84,100,-49
653486885,-2752,-204,16080,-55,155,-64
653490320,-2776,-276,15832,-82,57,-76
653493703,-2908,-200,15912,-69,101,-52
653497173,-2916,-248,16012,-121,88,-100
653500754,-2852,-224,16092,-87,87,-36
653504113,-2756,-268,15772,-107,144,-108
653507757,-2868,-260,15968,-92,65,-62
653511140,-2856,-216,16032,-85,154,-47
653514610,-2764,-228,16060,-110,97,-62
653518080,-2724,-172,15960,-73,99,-76
653521463,-2812,-168,15984,-123,93,-80
653524958,-2784,-216,15832,-72,63,-32
653528316,-2792,-228,15828,-132,173,-88
653531873,-2700,-200,15976,-105,57,-41
653535343,-2836,-208,16060,-81,176,-69
653538813,-2728,-232,16120,-99,77,-73
653542196,-2740,-188,15992,-64,105,-42
653545666,-2816,-224,16112,-95,138,-26
653549140,-2800,-232,16056,-74,103,-77
653552667,-2812,-248,16008,-99,157,-53
653556076,-2740,-236,16052,-95,47,-65
653559459,-2788,-184,16140,-65,137,-29
653562930,-2800,-204,15968,-104,64,-89
653566399,-2824,-192,15916,-85,91,-45
653569783,-2764,-216,15884,-101,92,-36
653573253,-2824,-176,15860,-83,102,-45
653576746,-2776,-96,16084,-119,181,-55
653580193,-2772,-124,15892,-81,44,-60
653583576,-2744,-160,16004,-53,151,-32
653587081,-2752,-184,15980,-102,46,-80
653590516,-2784,-296,16000,-64,90,-57
653593899,-2820,-224,16096,-149,106,-67
653597456,-2800,-240,16032,-87,51,-72
653600864,-2912,-292,15996,-111,183,-51
653604396,-2812,-212,15996,-106,34,-85
653607866,-2896,-112,15968,-94,176,-52
653611336,-2840,-180,16164,-114,77,-74
653614806,-2772,-208,15996,-72,95,-81
653618189,-2844,-152,16004,-98,187,-72
653621659,-2796,-204,16044,-97,77,-58
653625067,-2804,-256,16056,-115,164,-57
653628599,-2684,-164,15948,-99,50,-82
653631982,-2828,-156,15924,-89,158,-51
653635453,-2780,-256,15984,-101,49,-59
653638923,-2832,-136,16004,-78,160,-63
653642393,-2832,-120,15936,-109,118,-69
653645949,-2756,-148,16016,-70,93,-56
653649381,-2956,-156,16012,-81,152,-51
653652802,-2856,-204,15988,-98,52,-61
653656186,-2840,-280,15988,-37,177,-44
653659656,-2804,-284,16052,-97,34,-65
653663039,-2740,-296,15936,-63,111,-50
653666509,-2836,-216,16088,-105,86,-57
653669979,-2892,-292,15960,-60,75,-49
653673362,-2816,-224,16044,-114,131,-59
653676942,-2752,-172,16028,-88,51,-57
653680302,-2812,-168,15868,-120,214,-51
653683859,-2816,-188,15952,-90,34,-57
653687277,-2684,-156,15944,-78,148,-56
653690712,-2848,-248,16040,-129,60,-61
653694182,-2672,-212,15856,-69,98,-61
653697565,-2856,-224,16072,-117,111,-67
653701147,-2896,-188,15876,-86,44,-46
653704506,-2748,-184,15928,-92,163,-66
653707976,-2776,-188,16144,-99,70,-56
653711359,-2828,-164,15992,-65,150,-44
653714829,-2808,-228,15940,-109,122,-74
653718386,-2796,-220,16084,-91,113,-23
653721855,-2848,-240,15988,-66,164,-50
653725350,-2756,-296,15932,-72,51,-36
653728709,-2704,-232,15984,-39,145,-68
653732179,-2692,-244,15908,-140,97,-43
653735649,-2864,-204,15992,-52,141,-36
653739119,-2776,-144,15896,-107,145,-50
653742675,-2848,-192,16028,-96,59,-83
653746059,-2868,-204,15980,-97,152,-47
653749577,-2812,-188,15940,-97,57,-56
653752912,-2796,-296,16060,-67,122,-28
653756382,-2780,-188,16012,-111,62,-85
653759852,-2828,-220,15960,-61,78,-79
653763235,-2864,-328,16008,-131,108,-66
653766792,-2860,-212,16044,-93,61,-52
653770175,-2844,-164,15924,-103,166,-63
653773732,-2820,-252,16140,-104,63,-87
653777225,-2924,-240,16148,-74,140,-47
653780672,-2840,-164,16036,-121,136,-79
653784229,-2792,-164,15956,-74,101,-61
653787734,-2768,-188,16012,-117,181,-35
653791256,-2784,-192,16008,-81,62,-66
653794639,-2768,-324,16020,-89,165,-69
653798109,-2868,-272,15960,-85,66,-49
653801516,-2820,-232,15888,-63,108,-67
653804962,-2748,-268,16024,-135,69,-67
653808432,-2880,-176,16064,-73,62,-44
653811815,-2892,-244,15980,-137,154,-80
653815372,-2848,-304,15896,-92,49,-76
653818755,-2860,-264,15980,-77,191,-49
653822225,-2840,-304,15980,-77,72,-55
653825633,-2804,-168,16096,-58,125,-60
653829079,-2728,-200,15924,-101,56,-65
653832549,-2780,-240,16012,-97,117,-60
653836018,-2772,-164,15840,-122,128,-66
653839575,-2840,-184,16064,-78,41,-85
653842958,-2708,-184,15928,-95,172,-61
653846428,-2752,-184,16044,-108,60,-92
653849947,-2708,-196,15956,-73,107,-43
653853369,-2700,-232,16168,-112,151,-62
653856925,-2812,-132,16028,-62,99,-43
653860309,-2828,-256,15964,-79,151,-82
653863778,-2780,-188,16140,-81,38,-38
653867162,-2776,-220,15900,-43,146,-107
653870718,-2940,-200,15932,-99,68,-76
653874105,-2744,-220,15952,-75,87,-69
653877508,-2824,-192,15924,-100,168,-42
653881042,-2608,-232,15956,-105,53,-60
653884512,-2908,-112,16128,-62,171,-25
653888017,-2700,-248,15932,-107,46,-84
653891452,-2900,-228,15972,-40,133,-57
653894922,-2676,-280,15920,-100,68,-45
653898392,-2920,-156,16084,-72,72,-64
653901799,-2628,-280,15780,-113,145,-45
653905332,-2896,-172,16048,-84,38,-28
653908715,-2612,-228,15792,-93,166,-57
653912185,-2940,-332,16020,-103,46,-49
653915655,-2648,-192,15752,-103,121,-36
653919212,-3032,-140,16024,-122,112,-39
653922768,-2724,-288,15944,-68,85,-121
653926263,-2944,-220,15956,-46,133,-11
653929708,-2704,-260,16004,-88,57,-84
653933092,-2904,-292,16088,-52,126,-50
653936562,-2700,-248,16016,-98,77,-68
653939945,-2852,-204,16232,-65,72,-50
653943328,-2804,-308,16008,-113,120,-62
653946885,-2772,-208,16088,-77,48,-48
653950318,-2792,-188,16016,-91,182,-32
653953738,-2844,-212,16200,-119,50,-74
653957208,-2780,-232,15808,-65,156,-36
653960678,-2776,-292,16092,-130,79,-78
653964148,-2796,-212,16004,-68,86,-28
653967531,-2868,-220,15924,-127,113,-108
653971175,-2812,-252,16060,-74,54,-56
653974582,-2964,-168,15932,-134,174,-68
653978115,-2752,-136,15828,-107,26,-83
653981585,-2916,-184,15892,-74,179,-54
653985055,-2848,-164,15972,-126,97,-89
653988560,-2840,-184,15828,-59,140,-61
653991995,-2824,-244,15916,-124,177,-83
653995552,-2840,-268,16004,-93,92,-75
653998939,-2848,-240,16064,-77,196,-35
654002430,-2772,-300,15968,-99,59,-97
654005788,-2864,-240,15908,-49,146,-47
654009258,-2840,-224,15988,-109,64,-77
654012728,-2876,-236,16112,-71,86,-50
654016111,-2800,-184,16024,-141,113,-82
654019668,-2912,-248,15892,-71,66,-41
654023052,-2792,-252,16036,-100,172,-103
654026720,-2772,-244,15924,-105,69,-37
654030165,-2840,-160,15984,-56,165,-61
654033635,-2840,-200,15968,-109,79,-58
654037105,-2900,-276,16016,-66,86,-50
654040488,-2788,-132,15896,-88,184,-58
654043958,-2844,-204,16028,-88,38,-43
654047341,-2812,-208,15972,-118,176,-60
654051001,-2792,-200,16060,-105,48,-69
654054368,-2792,-208,16012,-75,90,-49
654057752,-2728,-228,16016,-130,95,-56
654061222,-2816,-188,15888,-70,94,-68
654064605,-2804,-248,15968,-107,171,-59
654068161,-2748,-204,15992,-61,60,-64
654071545,-2824,-152,15904,-68,205,-56
654075038,-2760,-260,16008,-119,14,-43
654078485,-2772,-168,16020,-56,138,-86
654081955,-2864,-168,15980,-103,64,-57
654085425,-2820,-128,15884,-85,66,-64
654088847,-2832,-268,16008,-138,160,-65
654092365,-2856,-204,16096,-88,55,-62
654095748,-2872,-264,15936,-79,174,-55
654099246,-2804,-268,15860,-112,59,-84
654102688,-2776,-172,16076,-73,136,-53
654106158,-2816,-204,15828,-135,154,-57
654109715,-3112,-212,15996,-42,67,-82
654113098,-2568,-100,15924,-109,147,-64
654116655,-2848,-132,16092,-102,27,-37
654120125,-2740,-176,16128,-46,144,-71
654123595,-2808,-212,15876,-95,64,-60
654127003,-2740,-276,15980,-68,169,-50
654130448,-2744,-188,15876,-93,108,-72
654133918,-2768,-300,15964,-56,117,-54
654137388,-2736,-260,15812,-126,172,-76
654140945,-2828,-200,15964,-55,54,-80
654144328,-2804,-200,15924,-56,179,-43
654147798,-2840,-220,15984,-92,64,-91
654151230,-2812,-228,15936,-41,123,-62
654154651,-2872,-244,15960,-117,99,-70
654158121,-2848,-248,16060,-87,26,-50
654161505,-2852,-260,15920,-109,164,-57
654165061,-2836,-300,15996,-105,38,-83
654168531,-2792,-176,15892,-86,198,-75
654172001,-2820,-304,15932,-128,83,-54
654175494,-2816,-232,15920,-68,126,-50
654178941,-2792,-272,15944,-126,134,-65
654182498,-2876,-144,16012,-67,76,-63
654185881,-2840,-80,16028,-81,167,-58
654189299,-2844,-224,16092,-90,44,-86
654192648,-2792,-196,16000,-80,188,-42
654196118,-2936,-220,16016,-118,44,-50
654199612,-2900,-208,16048,-46,156,-25
654203058,-2956,-244,16060,-118,127,-59
654206615,-2716,-272,15904,-64,84,-66
654209998,-2820,-184,15980,-111,162,-50
654213555,-2752,-232,16020,-94,92,-77
654216938,-2728,-212,16060,-75,158,-36
654220408,-2816,-212,16008,-104,41,-83
654223881,-2760,-284,15960,-61,116,-24
654227372,-2864,-172,16028,-129,106,-65
654230904,-2908,-172,15940,-87,71,-63
654234288,-2752,-208,15920,-124,168,-58
654237845,-2872,-228,16056,-88,53,-66
654241228,-2860,-176,15924,-88,171,-34
654244698,-2768,-240,16080,-76,76,-77
654248081,-2776,-284,16096,-77,117,-30
654251599,-2864,-268,16040,-148,152,-68
654255108,-2836,-280,15920,-61,61,-62
654258491,-2824,-256,15912,-134,167,-55
654262048,-2880,-148,15988,-91,48,-81
654265431,-2792,-308,15884,-63,176,-45
654268901,-2740,-196,15924,-120,74,-55
654272371,-2728,-184,15948,-42,126,-70
654275864,-2816,-252,16128,-126,159,-63
654279398,-2820,-196,15836,-62,73,-55
654282781,-2812,-176,15996,-75,170,-91
654286251,-2860,-264,15908,-90,60,-54
654289669,-2832,-260,15960,-71,135,-45
654293104,-2840,-248,15964,-93,39,-56
654296487,-2808,-112,15936,-55,84,-60
654299895,-2744,-264,16060,-134,108,-94
654303428,-2828,-216,15792,-99,58,-58
654306811,-2856,-188,16032,-101,176,-45
654310368,-2800,-188,16176,-133,72,-68
654313838,-2840,-244,15940,-43,145,-34
654317308,-2868,-204,15916,-125,81,-77
654320777,-2780,-216,16040,-49,114,-75
654324272,-2728,-116,16020,-119,163,-56
654327804,-2772,-252,16000,-101,67,-62
654331274,-2836,-184,15888,-86,198,-43
654334744,-2720,-224,16068,-88,41,-88
654338128,-2876,-216,16056,-66,159,-56
654341598,-2796,-152,16040,-103,72,-57
654345068,-2872,-208,15960,-64,132,-61
654348538,-2872,-204,16028,-134,135,-73
654352143,-2900,-200,16172,-96,48,-61
654355477,-2824,-244,15876,-91,171,-60
654358948,-2696,-164,16088,-103,63,-67
654362417,-2788,-200,15940,-68,140,-61
654365888,-2772,-312,15928,-95,53,-69
654369271,-2700,-188,16024,-67,108,-41
654372741,-2784,-144,16016,-112,125,-72
654376321,-2792,-256,15984,-89,76,-75
654379681,-2764,-272,15932,-96,170,-61
654383151,-2728,-232,15736,-103,50,-65
654386621,-2876,-232,15880,-57,160,-68
654390126,-2800,-184,15904,-101,108,-104
654393734,-2732,-196,15916,-77,135,-44
654397204,-2912,-204,15908,-115,176,-79
654400786,-2864,-280,15924,-82,60,-68
654404144,-2820,-268,15924,-68,187,-48
654407614,-2868,-244,15916,-112,55,-52
654411084,-2748,-240,15928,-70,108,-45
654414554,-2748,-240,15984,-101,80,-85
654418024,-2760,-184,16072,-53,62,-51
654421407,-2768,-216,15988,-130,160,-68
654424989,-2864,-252,16068,-100,46,-43
654428434,-2840,-284,15852,-69,189,-92
654431904,-2740,-220,15972,-110,78,-77
654435374,-2776,-232,15912,-78,125,-57
654438844,-2844,-276,15992,-115,125,-50
654442401,-2800,-260,15948,-90,85,-76
654445784,-2820,-140,15976,-80,188,-31
654449303,-2772,-124,15956,-91,70,-64
654452638,-2828,-164,16000,-94,177,-50
654456108,-2900,-256,16024,-103,93,-77
654459577,-2784,-284,15996,-54,119,-72
654463048,-2724,-212,16160,-99,155,-53
654466517,-2784,-268,15984,-74,61,-52
654469901,-2740,-232,16016,-89,194,-64
654473371,-2856,-284,15912,-87,51,-82
654476777,-2764,-216,15960,-55,144,-47
654480224,-2760,-204,15964,-114,57,-78
654483694,-2832,-216,16052,-57,80,-59
654487077,-2768,-288,16036,-122,151,-74
654490669,-2808,-208,15768,-85,67,-60
654494022,-2724,-264,15928,-91,169,-55
654497487,-2816,-240,16044,-96,34,-77
654500895,-2768,-232,15992,-61,140,-31
654504340,-2848,-304,15936,-94,68,-83
654507724,-2932,-156,15868,-86,136,-69
654511194,-2860,-248,15968,-124,80,-81
654514664,-2820,-132,15944,-83,34,-73
654518047,-2780,-144,16008,-99,190,-74
654521517,-2840,-192,16036,-88,27,-38
654524925,-2772,-228,15928,-63,181,-77
654528370,-2848,-224,16000,-99,38,-78
654531753,-2832,-280,15964,-55,151,-64
654535224,-2796,-216,15872,-99,73,-54
654538607,-2776,-340,16140,-79,102,-74
654542077,-2776,-240,15996,-131,142,-67
654545634,-2740,-228,15920,-83,53,-68
654549020,-2852,-320,16076,-86,169,-66
654552547,-2828,-272,16040,-117,87,-82
654555957,-2892,-188,15840,-76,129,-63
654559427,-2856,-212,15976,-125,127,-78
654562984,-2732,-288,15924,-65,73,-77
654566367,-2864,-228,15904,-80,192,-42
654569837,-2840,-184,15896,-108,51,-63
654573307,-2728,-212,15980,-54,171,-55
654576800,-2824,-244,15916,-95,55,-82
654580160,-2864,-152,15968,-62,159,-36
654583630,-2720,-148,15976,-126,99,-69
654587100,-2816,-204,15952,-71,135,-57
654590573,-2856,-280,16020,-126,165,-67
654594162,-2832,-192,16048,-110,47,-76
654597597,-2792,-164,15968,-91,178,-76
654601091,-2868,-268,16076,-93,59,-77
654604450,-2820,-200,15944,-72,134,-57
654607920,-2836,-212,16172,-113,92,-72
654611390,-2832,-256,15892,-88,60,-55
654614773,-2900,-216,16068,-120,145,-79
654618330,-2860,-212,16048,-88,35,-83
654621713,-2836,-288,15864,-85,201,-38
654625208,-2824,-216,15956,-90,57,-88
654628567,-2796,-244,15852,-65,164,-36
654632037,-2792,-248,15908,-106,106,-50
654635593,-2772,-284,16016,-58,89,-57
654638977,-2840,-276,16104,-114,163,-70
654642533,-2780,-268,15960,-88,62,-72
654645917,-2856,-280,15984,-116,168,-77
654649522,-2836,-256,16080,-104,41,-66
654652943,-2876,-264,15884,-69,143,-61
654656413,-2784,-148,16084,-100,70,-51
654659883,-2800,-208,15848,-61,83,-67
654663267,-2596,-156,16012,-103,134,-92
654666823,-2824,-140,15936,-61,73,-43
654670207,-2868,-296,15960,-104,190,-71
654673767,-2960,-192,15796,-87,29,-54
654677170,-2888,-216,16076,-61,145,-36
654680617,-2856,-244,16076,-103,41,-80
654684087,-2784,-284,16032,-53,104,-79
654687557,-2808,-272,15900,-124,113,-59
654691113,-2832,-276,16068,-91,45,-68
654694531,-2812,-184,15996,-109,172,-51
654698053,-2792,-152,15912,-83,52,-79
654701461,-2800,-160,16060,-86,154,-51
654704907,-2808,-296,16168,-112,89,-86
654708376,-2860,-204,15928,-73,117,-67
654711847,-2808,-192,15992,-93,166,-90
654715317,-2808,-228,15936,-82,39,-64
654718700,-2716,-160,15976,-65,166,-48
654722170,-2824,-240,15920,-98,49,-75
654725578,-2740,-368,16008,-57,174,-40
654729023,-2744,-264,15876,-106,80,-90
654732493,-2808,-108,16008,-62,123,-54
654735963,-2712,-212,15980,-129,144,-55
654739520,-2896,-208,15988,-81,72,-49
654742903,-2792,-220,15924,-65,164,-86
654746373,-2852,-196,16012,-88,50,-79
654749805,-2824,-272,15908,-73,137,-64
654753226,-2728,-148,15868,-125,39,-104
654756783,-2864,-216,15912,-55,55,-66
654760166,-2892,-328,15960,-145,117,-70
654763723,-2816,-248,15920,-105,69,-31
654767193,-2732,-244,16032,-99,188,-63
654770663,-2768,-188,16044,-97,46,-71
654774050,-2916,-188,15912,-64,163,-64
654777539,-2840,-188,15964,-128,120,-71
654781073,-2804,-192,15980,-58,130,-44
654784543,-2716,-176,15920,-91,176,-82
654788013,-2776,-224,16024,-85,47,-46
654791396,-2792,-216,15924,-50,161,-43
654794901,-2864,-236,15872,-126,34,-77
654798336,-2800,-172,16000,-80,102,-64
654801831,-2956,-224,15896,-115,91,-77
654805276,-2748,-268,15992,-81,49,-48
654808659,-2900,-180,16004,-119,182,-56
654812216,-2836,-156,16004,-88,58,-58
654815599,-2840,-196,16036,-66,168,-27
654819069,-2812,-192,15876,-109,62,-75
654822540,-2916,-192,16000,-68,102,-42
654826034,-2708,-144,15904,-108,88,-84
654829480,-2992,-100,16100,-93,64,-46
654832863,-2828,-160,15980,-119,155,-75
654836419,-2796,-232,15852,-106,73,-49
654839890,-2720,-280,15864,-92,192,-71
654843360,-2772,-176,15944,-124,79,-82
654846829,-2924,-168,16028,-34,137,-55
654850348,-2812,-172,15992,-128,125,-53
654853856,-2660,-244,16068,-83,82,-53
654857240,-2780,-256,15880,-70,184,-38
654860709,-2836,-208,16088,-91,63,-76
654864093,-2804,-132,15992,-60,123,-45
654867563,-2768,-280,16096,-112,67,-71
654871033,-2880,-276,16024,-81,67,-35
654874439,-2780,-184,16132,-109,158,-87
654877973,-2780,-252,16000,-74,44,-76
654881356,-2684,-232,15996,-97,185,-75
654884826,-2828,-204,16068,-109,34,-52
654888296,-2648,-248,15968,-46,133,-38
654891766,-2792,-188,16004,-113,51,-82
654895271,-2772,-228,15908,-72,85,-54
654898619,-2788,-152,15956,-110,89,-58
654902114,-2892,-236,16028,-78,79,-59
654905473,-2744,-192,15960,-113,186,-77
654909029,-2864,-248,16072,-113,57,-75
654912499,-2776,-232,15908,-86,181,-62
654915969,-2832,-184,16080,-109,60,-65
654919439,-2760,-272,15940,-77,155,-57
654922909,-2812,-256,15920,-134,86,-41
654926404,-2760,-260,16036,-61,116,-73
654929849,-2884,-244,15924,-133,128,-101
654933493,-2804,-228,15904,-78,97,-68
654936876,-2856,-244,16136,-82,177,-52
654940346,-2728,-204,15860,-96,51,-69
654943729,-2876,-172,15988,-51,163,-55
654947199,-2804,-224,15960,-110,50,-66
654950718,-2736,-280,16000,-89,89,-60
654954053,-2752,-216,15992,-120,83,-71
654957522,-2732,-216,15972,-53,93,-61
654960906,-2756,-176,16088,-117,172,-35
654964463,-2840,-300,16072,-104,48,-76
654967933,-2776,-264,16108,-92,192,-89
654971403,-2848,-196,15984,-101,38,-78
654974896,-2888,-180,15944,-76,125,-36
654978342,-2880,-92,15900,-136,78,-102
654981813,-2744,-188,16080,-76,42,-63
654985196,-2704,-300,15940,-90,168,-78
654988666,-2740,-252,16020,-100,59,-77
654992136,-2832,-248,15916,-79,150,-67
654995641,-2808,-220,15948,-118,95,-66
654999079,-2868,-120,15952,-84,89,-55
655002484,-2852,-192,16008,-135,163,-62
655006016,-2944,-228,15852,-51,55,-69
655009399,-2760,-200,16072,-121,177,-61
655012956,-2764,-144,16064,-93,43,-64
655016339,-2856,-172,15904,-67,165,-65
655019809,-2888,-200,15928,-109,61,-75
655023279,-2892,-192,16012,-66,145,-35
655026774,-2800,-116,16140,-118,143,-63
655030306,-2780,-232,16028,-62,70,-50
655033689,-2672,-236,16072,-95,172,-72
655037159,-2788,-340,16056,-91,55,-74
655040542,-2868,-304,16092,-76,143,-64
655044012,-2728,-180,15892,-104,36,-66
655047482,-2812,-228,15832,-73,77,-65
655050968,-2832,-132,15884,-122,108,-60
655054422,-2824,-140,15892,-91,34,-80
655057805,-2836,-116,15972,-101,155,-56
655061362,-2720,-240,15900,-89,57,-72
655064745,-2880,-212,15956,-78,140,-61
655068216,-2728,-228,15900,-114,86,-60
655071686,-2788,-192,16056,-69,120,-65
655075179,-2840,-248,15900,-107,156,-70
655078712,-2756,-272,16028,-99,53,-34
655082095,-2784,-212,16008,-121,159,-82
655085652,-2808,-252,15932,-110,21,-58
655089122,-2864,-176,16000,-63,69,-48
655092505,-2772,-212,15864,-99,102,-73
655096014,-2804,-168,16024,-63,135,-34
655099470,-2780,-236,15984,-135,128,-51
655103002,-2808,-216,15888,-64,90,-72
655106385,-2832,-204,16080,-65,168,-54
655109856,-2900,-276,15984,-103,61,-61
655113326,-2884,-292,15908,-67,139,-26
655116795,-2856,-208,15848,-99,41,-57
655120179,-2812,-100,15844,-74,92,-55
655123562,-2844,-276,15992,-108,92,-42
655127056,-2856,-152,15812,-102,50,-61
655130502,-2668,-260,15964,-107,165,-61
655134059,-2724,-212,15936,-87,58,-76
655137442,-2816,-276,15968,-87,166,-59
655140912,-2720,-188,16036,-97,81,-80
655144295,-2788,-256,16068,-67,138,-49
655147765,-2804,-188,15892,-96,99,-84
655151197,-2748,-228,16084,-73,94,-56
655154532,-2808,-208,16048,-119,136,-48
655158088,-2784,-204,16080,-89,67,-61
655161472,-2908,-244,15884,-106,161,-71
655165028,-2744,-284,16116,-106,64,-70
655168499,-2772,-300,16052,-61,168,-56
655171968,-2812,-196,15932,-108,133,-76
655175548,-2716,-316,15992,-54,84,-47
655178909,-2812,-228,15948,-97,183,-51
655182379,-2908,-232,15996,-54,61,-77
655185762,-2744,-136,15924,-68,171,-32
655189232,-2748,-284,15944,-76,42,-65
655192615,-2804,-192,15940,-65,184,-55
655196120,-2780,-224,16044,-100,31,-48
655199580,-2780,-160,15928,-79,180,-51
655203025,-2824,-284,16048,-107,101,-87
655206582,-2760,-212,15948,-68,95,-55
655209965,-2828,-208,16000,-117,143,-56
655213522,-2800,-224,16012,-79,53,-48
655216905,-2768,-284,15996,-71,176,-49
655220375,-2760,-188,16056,-112,50,-63
655223849,-2796,-184,15872,-39,145,-38
655227340,-2740,-256,16168,-107,66,-63
655230785,-2784,-352,16000,-67,109,-83
655234255,-2792,-268,15900,-134,125,-103
655237899,-2836,-144,16028,-88,47,-69
655241282,-2812,-284,15940,-103,168,-53
655244838,-2812,-232,15932,-80,69,-45
655248222,-2876,-132,15960,-89,197,-51
655251740,-2888,-204,15932,-108,97,-92
655255162,-2796,-200,16152,-46,136,-66
655258632,-2788,-228,16116,-117,129,-65
655262189,-2804,-140,15948,-60,72,-47
655265572,-2776,-164,15988,-52,173,-62
655269042,-2768,-176,15992,-81,61,-62
655272425,-2816,-296,15860,-64,110,-52
655275918,-2796,-232,15948,-111,88,-85
655279365,-2792,-268,16048,-69,93,-71
655282748,-2792,-184,15844,-127,104,-77
655286305,-2836,-128,16080,-84,38,-75
655289688,-2952,-244,15912,-100,194,-63
655293245,-2756,-152,16040,-116,40,-59
655296750,-2852,-252,16004,-55,156,-48
655300209,-2816,-248,15988,-102,112,-67
655303742,-2728,-252,15916,-49,97,-51
655307125,-2860,-200,16016,-122,98,-72
655310595,-2908,-248,16084,-69,83,-61
655313978,-2736,-176,15988,-114,158,-71
655317535,-2804,-196,15988,-98,51,-73
655320918,-2792,-204,15796,-93,157,-56
655324413,-2772,-220,15980,-108,60,-66
655327858,-2788,-188,15956,-57,134,-64
655331328,-2712,-172,15996,-116,138,-91
655334885,-2884,-236,16040,-78,92,-65
655338268,-2880,-200,15948,-89,173,-71
655341738,-2792,-280,15972,-110,45,-37
655345208,-2816,-300,16000,-54,140,-65
655348682,-2884,-160,15916,-114,78,-50
655352197,-2832,-228,16044,-78,101,-52
655355618,-2764,-188,15916,-92,85,-63
655359002,-2768,-204,15824,-97,73,-60
655362385,-2820,-104,15848,-108,164,-49
655365942,-2772,-284,15984,-77,53,-59
655369325,-2780,-316,15748,-61,174,-60
655372795,-2796,-308,15928,-125,66,-66
655376288,-2812,-240,16076,-52,90,-42
655379648,-2884,-176,16096,-128,73,-69
655383118,-2804,-272,15784,-74,95,-89
655386501,-2804,-140,16028,-123,152,-76
655390058,-2780,-268,16124,-83,32,-52
655393441,-2728,-176,15996,-101,184,-79
655397033,-2836,-220,15940,-124,69,-40
655400493,-2816,-328,15844,-60,137,-89
655403938,-2876,-284,16100,-111,148,-68
655407495,-2852,-260,15808,-97,94,-50
655410878,-2852,-200,15952,-76,181,-57
655414348,-2808,-204,15936,-102,46,-86
655417818,-2952,-112,15916,-52,139,-60
655421288,-2780,-168,15996,-117,85,-91
655424782,-2780,-168,15888,-85,101,-61
655428228,-2904,-140,15960,-126,82,-55
655431698,-2876,-228,16052,-87,71,-70
655435081,-2848,-216,15988,-104,163,-70
655438638,-2724,-192,15864,-107,51,-83
655442108,-2732,-144,16100,-69,164,-44
655445578,-2848,-288,15984,-94,61,-69
655448965,-2828,-152,15904,-62,115,-52
655452480,-2828,-220,16120,-144,58,-89
655455901,-2816,-208,15920,-78,86,-71
655459285,-2800,-220,16056,-104,113,-108
655462928,-2864,-124,15968,-75,58,-52
655466311,-2812,-200,16016,-96,181,-41
655469781,-2812,-240,15784,-101,53,-75
655473251,-2884,-212,15900,-48,169,-69
655476744,-2848,-348,16032,-111,118,-79
655480278,-2960,-188,15920,-59,74,-58
655483661,-2756,-244,16060,-102,195,-79
655487218,-2848,-216,15888,-82,47,-47
655490601,-2784,-136,15872,-71,143,-52
655494071,-2760,-192,15960,-110,74,-75
655497576,-2852,-276,16012,-85,103,-47
655501036,-2840,-296,16016,-123,114,-84
655504568,-2824,-244,15904,-83,51,-81
655507951,-2836,-180,15956,-96,191,-55
655511421,-2720,-256,15948,-113,64,-77
655514891,-2776,-200,16088,-56,145,-67
655518361,-2772,-260,15984,-117,149,-83
655521918,-2792,-220,15928,-67,107,-46
655525413,-2724,-196,16020,-96,159,-39
655528858,-2816,-160,16024,-101,55,-67
655532328,-2780,-132,16092,-64,147,-57
655535798,-2868,-324,16092,-113,70,-87
655539268,-2768,-172,16032,-71,91,-67
655542651,-2732,-204,16068,-117,127,-54
655546208,-2716,-228,16000,-81,64,-90
655549652,-2716,-228,15940,-116,147,-61
655553148,-2852,-200,16076,-71,68,-80
655556531,-2848,-108,15808,-66,184,-40
655560001,-2796,-148,15936,-95,46,-71
655563384,-2812,-172,15928,-58,144,-64
655566855,-2776,-200,15772,-119,56,-73
655570325,-2908,-272,16076,-77,51,-65
655573711,-2900,-236,15920,-109,135,-64
655577288,-2760,-340,16196,-80,67,-81
655580648,-2892,-228,16024,-82,182,-63
655584118,-2792,-188,15960,-104,88,-68
655587588,-2888,-172,15852,-58,109,-51
655591058,-2844,-268,16056,-127,156,-78
655594614,-2872,-148,15912,-74,100,-43
655598119,-2828,-288,16104,-121,176,-59
655601666,-2684,-256,16112,-100,66,-80
655605111,-2888,-272,15984,-71,138,-50
655608581,-2860,-240,16192,-106,70,-63
655612051,-2864,-196,15904,-86,109,-70
655615521,-2820,-200,16016,-115,106,-77
655619078,-2732,-252,16096,-95,66,-57
655622461,-2760,-220,16000,-84,158,-29
655625956,-2920,-168,16064,-103,43,-99
655629401,-2772,-280,15968,-70,151,-50
655632871,-2792,-164,16028,-99,98,-68
655636254,-2748,-256,16048,-63,106,-44
655639724,-2700,-264,15824,-117,92,-54
655643194,-2664,-252,15860,-82,72,-54
655646578,-2756,-216,16064,-107,147,-63
655650183,-2756,-236,16008,-106,57,-77
655653604,-2808,-228,15996,-59,158,-40
655657074,-2824,-228,15820,-130,117,-59
655660631,-2780,-140,15940,-72,126,-86
655664101,-2744,-108,15848,-114,148,-61
655667658,-2812,-260,15984,-90,71,-66
655671041,-2864,-160,16004,-61,172,-64
655674535,-2748,-184,15948,-99,49,-59
655677894,-2856,-208,16024,-61,92,-45
655681278,-2888,-204,15956,-84,83,-56
655684661,-2808,-180,15932,-75,45,-61
655688044,-2876,-212,15856,-108,152,-66
655691601,-2812,-176,16020,-103,38,-67
655695071,-2852,-208,15940,-78,181,-53
655698576,-2904,-296,15808,-109,81,-64
655702036,-2732,-304,16112,-75,115,-66
655705481,-2776,-252,15952,-118,99,-69
655708951,-2828,-184,16036,-109,66,-51
655712421,-2824,-180,15944,-107,149,-55
655715978,-2824,-200,15776,-98,31,-69
655719361,-2748,-152,15992,-76,170,-51
655722831,-2848,-192,16064,-100,77,-53
655726325,-2764,-252,15972,-67,138,-50
655729771,-2676,-212,16060,-119,127,-45
655733328,-2816,-124,16036,-46,121,-59
655736798,-2860,-188,15976,-93,170,-54
655740268,-2864,-240,16044,-88,60,-67
655743651,-2880,-192,15908,-66,146,-46
655747121,-2760,-184,16024,-99,47,-89
655750553,-2780,-248,16168,-64,102,-51
655753974,-2824,-160,15884,-125,106,-71
655757531,-2780,-256,15984,-75,52,-66
655760914,-2768,-144,15936,-115,139,-76
655764471,-2780,-264,16008,-99,47,-44
655767854,-2880,-184,15960,-86,198,-74
655771324,-2840,-260,16032,-117,101,-58
655774904,-2760,-252,15924,-80,112,-54
655778351,-2840,-240,15984,-125,135,-70
655781908,-2868,-220,15968,-78,63,-56
655785291,-2812,-176,15924,-65,165,-60
655788761,-2756,-176,15848,-99,46,-75
655792144,-2684,-212,16148,-94,190,-54
655795614,-2796,-316,15964,-118,60,-101
655799214,-2788,-264,15976,-72,79,-69
655802554,-2728,-308,15964,-122,144,-65
655806111,-2728,-384,15908,-98,17,-27
655809494,-2812,-160,16076,-66,185,-72
655812964,-2760,-244,15912,-91,79,-43
655816348,-2856,-308,15940,-57,165,-55
655819817,-2816,-260,16036,-98,46,-48
655823201,-2840,-192,15956,-66,110,-61
655826695,-2848,-320,15948,-118,95,-69
655830141,-2736,-248,15884,-94,48,-52
655833524,-2652,-280,15940,-116,165,-54
655837081,-2868,-244,16016,-114,46,-69
655840551,-2756,-204,15940,-93,164,-26
655844021,-2780,-192,15904,-104,97,-58
655847491,-2744,-160,15984,-56,155,-55
655851009,-2736,-256,15924,-119,123,-56
655854518,-2772,-204,16088,-52,70,-40
655857901,-2684,-172,15808,-105,163,-60
655861458,-2908,-268,15980,-71,50,-62
655864841,-2852,-200,15956,-100,167,-73
655868398,-2692,-224,16024,-115,73,-66
655871867,-2888,-200,15900,-53,108,-74
655875362,-2764,-200,15936,-126,112,-78
655878894,-2816,-172,15948,-81,59,-26
655882278,-2812,-324,15844,-95,165,-73
655885748,-2808,-112,15976,-80,48,-57
655889131,-2688,-204,15972,-83,181,-68
655892601,-2836,-164,15948,-86,55,-86
655895984,-2780,-256,15948,-64,134,-59
655899496,-2796,-184,16012,-132,69,-67
655902924,-3032,-188,16004,-86,86,-42
655906307,-2816,-244,16076,-105,111,-91
655909864,-2804,-232,15924,-72,50,-86
655913247,-2864,-292,15872,-88,191,-67
655916717,-2776,-192,15964,-104,41,-46
655920187,-2852,-128,16072,-68,145,-44
655923661,-2816,-220,16132,-105,135,-79
655927239,-2812,-224,16032,-90,71,-87
655930597,-2832,-180,16068,-84,176,-57
655934067,-2772,-284,15968,-102,39,-64
655937537,-2716,-264,15944,-81,192,-60
655941007,-2772,-252,15968,-113,70,-85
655944477,-2824,-268,15884,-61,136,-68
655947947,-2740,-136,15960,-109,150,-81
655951553,-2864,-264,15960,-90,64,-45
655954887,-2956,-244,15924,-101,174,-68
655958444,-2728,-216,15876,-90,75,-63
655961827,-2772,-188,15928,-63,177,-51
655965297,-2836,-212,15888,-80,71,-59
655968680,-2776,-260,15968,-71,128,-52
655972151,-2764,-208,16020,-110,84,-59
655975645,-2928,-320,15908,-72,75,-14
655979004,-2868,-196,15904,-108,138,-60
655982561,-2788,-200,15908,-92,43,-41
655985944,-2820,-280,15988,-86,189,-64
655989414,-2824,-252,15996,-123,64,-65
655992884,-2904,-192,15880,-70,155,-57
655996354,-2816,-204,15816,-133,145,-55
655999952,-2796,-248,16076,-38,86,-60
656003294,-2760,-236,15948,-75,183,-70
656006764,-2756,-184,16076,-81,37,-72
656010147,-2740,-200,15936,-101,175,-56
656013704,-2820,-188,15900,-95,69,-63
656017087,-2788,-124,15976,-37,126,-27
656020557,-2864,-248,15908,-115,105,-76
656024138,-2808,-256,16056,-62,134,-54
656027584,-2832,-180,16036,-109,162,-56
656031141,-2780,-248,15956,-92,61,-79
656034524,-2844,-224,16096,-68,167,-47
656037994,-2836,-312,15928,-97,55,-52
656041377,-2888,-212,15964,-67,109,-76
656044847,-2768,-204,15828,-112,96,-70
656048317,-2880,-216,15796,-58,67,-52
656051802,-2876,-156,15864,-122,140,-76
656055257,-2776,-228,16000,-73,52,-48
656058640,-2664,-156,15856,-96,167,-63
656062110,-2780,-256,16036,-119,58,-41
656065580,-2748,-276,15960,-65,141,-58
656069050,-2804,-224,15936,-115,119,-67
656072607,-2812,-216,15956,-59,104,-47
656076101,-2820,-180,15968,-90,177,-71
656079547,-2848,-252,16048,-106,61,-80
656083017,-2824,-200,15968,-56,165,-49
656086487,-2756,-180,16056,-82,39,-87
656089870,-2884,-192,16036,-56,188,-34
656093345,-2908,-148,15960,-96,102,-59
656096810,-2816,-160,16044,-65,131,-35
656100326,-2760,-280,16012,-95,171,-76
656103750,-2772,-152,15944,-58,58,-42
656107133,-2892,-248,15980,-87,169,-59
656110603,-2840,-228,15880,-100,73,-76
656114073,-2824,-148,15912,-71,122,-54
656117543,-2836,-228,15836,-105,62,-81
656121014,-2852,-208,15896,-67,70,-67
656124421,-2840,-168,16024,-90,167,-54
656127867,-2832,-160,16052,-80,48,-66
656131250,-2856,-200,15936,-77,174,-88
656134720,-2824,-280,16032,-89,70,-49
656138103,-2732,-256,16000,-66,135,-62
656141573,-2768,-316,16036,-109,64,-84
656145043,-2868,-384,16012,-79,63,-51
656148427,-2844,-252,16024,-105,163,-72
656152032,-2820,-240,16004,-95,44,-60
656155366,-2780,-236,15988,-83,173,-64
656158836,-2848,-224,15920,-87,89,-54
656162220,-2780,-152,16132,-65,128,-55
656165690,-2824,-148,15884,-109,120,-67
656169246,-2752,-208,15952,-83,87,-51
656172630,-2772,-196,15908,-82,182,-59
656176124,-2760,-184,15988,-102,29,-49
656179570,-2944,-276,15852,-61,153,-74
656183040,-2796,-280,16084,-126,78,-27
656186510,-2840,-228,16064,-53,163,-73
656189980,-2820,-132,15908,-130,103,-80
656193536,-2792,-196,15888,-93,66,-76
656196920,-2788,-240,15992,-113,164,-82
656200518,-2812,-244,15964,-91,40,-62
656203860,-2820,-188,16016,-73,193,-51
656207330,-2816,-212,16028,-92,51,-51
656210713,-2788,-180,15992,-52,149,-75
656214183,-2852,-288,15984,-107,55,-63
656217653,-2916,-176,15916,-73,100,-68
656221123,-2760,-232,16032,-110,88,-65
656224617,-2896,-264,15916,-91,35,-81
656227976,-2828,-144,15780,-92,174,-72
656231446,-2836,-152,16028,-118,61,-79
656234916,-2792,-140,15884,-69,158,-61
656238386,-2724,-256,16072,-122,114,-95
656241943,-2708,-232,15948,-73,100,-70
656245413,-2836,-76,15928,-110,169,-48
656248887,-2868,-240,15884,-83,46,-56
656252315,-2804,-220,15972,-84,198,-59
656255736,-2804,-112,15916,-92,43,-66
656259119,-2928,-144,16016,-108,184,-63
656262676,-2808,-224,16092,-88,27,-57
656266060,-2856,-264,15916,-57,193,-63
656269529,-2812,-240,16028,-117,103,-57
656273086,-2780,-276,16072,-57,113,-50
656276581,-2868,-244,15904,-118,180,-52
656280113,-2940,-184,16068,-76,55,-72
656283496,-2860,-228,15972,-60,162,-59
656286966,-2808,-284,15976,-75,61,-78
656290350,-2764,-260,15956,-44,109,-59
656293820,-2860,-180,15920,-120,101,-68
656297376,-2852,-304,15908,-95,46,-48
656300801,-2924,-152,15972,-124,173,-53
656304316,-2700,-104,16036,-80,60,-67
656307699,-2804,-200,16012,-90,185,-40
656311169,-2724,-160,15968,-128,74,-64
656314640,-2724,-236,15856,-66,139,-16
656318110,-2728,-136,15984,-124,153,-83
656321666,-2832,-292,15860,-64,47,-44
656325074,-2848,-272,15944,-69,191,-55
656328519,-2732,-84,15940,-99,50,-78
656331816,-2836,-268,15888,-69,185,-45
656335286,-2912,-192,16000,-106,63,-93
656338756,-2932,-172,15872,-71,123,-43
656342226,-2820,-240,15944,-120,153,-59
656345783,-2812,-288,15952,-80,77,-66
656349214,-2908,-244,16000,-56,165,-88
656352636,-2836,-212,16116,-93,43,-78
656356019,-2776,-320,16052,-75,124,-54
656359489,-2856,-276,16032,-105,58,-92
656362959,-2744,-132,15960,-90,74,-57
656366342,-2824,-192,15956,-98,137,-81
656369813,-2792,-192,16012,-86,32,-68
656373196,-2788,-132,15964,-95,193,-58
656376690,-2724,-316,15980,-76,54,-56
656380049,-2688,-212,16068,-88,123,-89
656383519,-2772,-212,15928,-96,72,-80
656386902,-2832,-156,15884,-75,79,-63
656390285,-2808,-232,16008,-103,115,-51
656393842,-2868,-208,15924,-97,64,-56
656397226,-2876,-204,16080,-81,199,-65
656400719,-2948,-228,15924,-136,51,-54
656404201,-2800,-224,15916,-67,161,-72
656407636,-2788,-240,16084,-106,121,-81
656411192,-2768,-284,15916,-98,112,-47
656414662,-2760,-108,15952,-105,160,-77
656418219,-2928,-268,15952,-80,67,-59
656421602,-2780,-184,15884,-85,187,-39
656425097,-2832,-160,15884,-82,35,-83
656428456,-2860,-248,15920,-79,168,-79
656431926,-2780,-184,16096,-112,72,-75
656435395,-2840,-272,15800,-59,120,-71
656438865,-2736,-188,15900,-88,116,-64
656442336,-2848,-220,15860,-79,109,-59
656445806,-2816,-192,15848,-84,165,-65
656449324,-2784,-156,16184,-61,75,-59
656452659,-2792,-176,16104,-65,191,-61
656456129,-2772,-352,16044,-94,35,-115
656459599,-2700,-276,15748,-42,122,-40
656463069,-2816,-260,16024,-98,73,-74
656466452,-2756,-204,15960,-63,103,-54
656469922,-2668,-172,15972,-124,117,-64
656473479,-2772,-176,15928,-103,77,-76
656476973,-2840,-212,15980,-87,183,-71
656480419,-2832,-220,15968,-85,53,-50
656483802,-2752,-160,15992,-63,180,-60
656487272,-2852,-332,16016,-111,83,-74
656490742,-2840,-272,15960,-54,125,-56
656494212,-2828,-148,15940,-117,71,-87
656497682,-2796,-188,16028,-91,103,-39
656501175,-2780,-168,15888,-119,163,-50
656504744,-2804,-192,15944,-103,80,-86
656508179,-2732,-228,16000,-36,135,-53
656511649,-2712,-184,15832,-113,74,-94
656515119,-2696,-240,15948,-52,135,-42
656518589,-2780,-188,15988,-124,152,-69
656522146,-2844,-176,16008,-97,37,-41
656525553,-2800,-216,16004,-85,199,-71
656528999,-2892,-188,15988,-106,60,-59
656532469,-2748,-256,15948,-62,175,-46
656535939,-2888,-264,16024,-97,44,-56
656539322,-2868,-248,15924,-77,132,-32
656542792,-2856,-256,15976,-103,61,-88
656546262,-2840,-124,16016,-63,91,-56
656549706,-2816,-196,15992,-118,150,-64
656553202,-2820,-200,15900,-101,50,-34
656556672,-2728,-288,16072,-77,191,-48
656560142,-2784,-280,15996,-116,45,-62
656563612,-2776,-160,16040,-58,140,-42
656567082,-2764,-200,15964,-106,148,-49
656570639,-2816,-268,15920,-66,83,-59
656574026,-2888,-184,15948,-68,177,-63
656577517,-2856,-284,15968,-90,50,-42
656580875,-2824,-264,15952,-59,129,-49
656584345,-2856,-336,15828,-122,90,-77
656587815,-2912,-272,16060,-77,129,-24
656591285,-2772,-204,15964,-117,147,-43
656594842,-2748,-244,16100,-104,68,-69
656598312,-2792,-164,15960,-76,177,-59
656601805,-2792,-160,15968,-123,77,-59
656605287,-2868,-216,15872,-72,117,-37
656608722,-2828,-264,15988,-119,90,-83
656612192,-2836,-304,15928,-71,59,-58
656615575,-2908,-220,16020,-112,155,-83
656619132,-2864,-220,16056,-111,52,-48
656622602,-2788,-300,16172,-69,188,-37
656626097,-2820,-212,15972,-127,101,-64
656629629,-2792,-200,15936,-48,113,-40
656633099,-2816,-160,16068,-104,157,-84
656636656,-2724,-84,15992,-88,67,-55
656639952,-2748,-228,16052,-80,191,-54
656643422,-2676,-280,15924,-79,45,-22
656646805,-2868,-100,15876,-68,138,-62
656650324,-2760,-200,16036,-86,68,-68
656653659,-2788,-192,15848,-71,58,-35
656657042,-2780,-144,16104,-121,140,-75
656660599,-2792,-140,15916,-97,64,-84
656663982,-2884,-136,16208,-82,174,-65
656667452,-2868,-192,16148,-101,64,-52
656670922,-2828,-300,16052,-66,161,-49
656674416,-2848,-200,15988,-85,54,-75
656677775,-2792,-244,15968,-69,113,-56
656681245,-2784,-144,15972,-117,106,-76
656684802,-2712,-240,15936,-62,80,-58
656688185,-2672,-112,15936,-110,143,-47
656691742,-2760,-184,16020,-96,55,-72
656695125,-2780,-200,16068,-84,160,-76
656698598,-2840,-208,16052,-109,86,-97
656702088,-2864,-312,16112,-43,113,-65
656705570,-2808,-52,15900,-124,146,-63
656709005,-2772,-284,15992,-86,103,-71
656712475,-2820,-156,15952,-62,204,-78
656715945,-2688,-240,15888,-83,49,-65
656719328,-2816,-196,15952,-62,138,-44
656722798,-2800,-224,15980,-109,75,-63
656726293,-2864,-200,15832,-51,133,-56
656729738,-2840,-196,16020,-126,133,-48
656733295,-2768,-188,16012,-69,44,-55
656736678,-2884,-216,16076,-101,151,-57
656740235,-2772,-188,15896,-78,76,-55
656743618,-2828,-204,16060,-52,142,-64
656747088,-2772,-256,15856,-101,81,-95
656750607,-2848,-240,16024,-67,72,-39
656753942,-2856,-316,16072,-104,106,-49
656757498,-2780,-188,16012,-79,73,-38
656760882,-2724,-192,16044,-103,187,-69
656764438,-2760,-160,15876,-95,61,-65
656767822,-2832,-252,16008,-50,186,-52
656771291,-2784,-244,15904,-112,103,-48
656774873,-2792,-272,15960,-73,117,-34
656778318,-2768,-216,16108,-90,155,-70
656781788,-2812,-276,16028,-74,78,-56
656785172,-2788,-288,15876,-59,194,-58
656788642,-2888,-244,15888,-99,50,-62
656792025,-2780,-240,15944,-70,175,-81
656795495,-2736,-232,15852,-115,61,-61
656798968,-2832,-172,16048,-78,146,-62
656802458,-2832,-216,15968,-104,169,-76
656806027,-2884,-192,16100,-118,44,-75
656809462,-2796,-220,15984,-52,163,-52
656812932,-2712,-188,16020,-114,42,-54
656816402,-2800,-220,15988,-51,106,-51
656819872,-2824,-340,15988,-130,83,-58
656823342,-2880,-236,16028,-84,89,-55
656826749,-2884,-288,15952,-104,175,-73
656830282,-2788,-240,15996,-111,51,-71
656833752,-3004,-228,15936,-78,177,-34
656837221,-2856,-92,15900,-79,80,-60
656840518,-2780,-128,16064,-86,119,-52
656843988,-2840,-192,16000,-135,116,-73
656847545,-2836,-184,16160,-68,91,-76
656850976,-2812,-200,16012,-74,172,-48
656854398,-2876,-268,16016,-100,63,-44
656857868,-2792,-248,15936,-64,180,-35
656861338,-2884,-212,15976,-98,53,-88
656864721,-2808,-140,15880,-53,157,-46
656868191,-2860,-224,15876,-106,113,-67
656871748,-2820,-248,16028,-92,67,-65
656875156,-2728,-248,15844,-92,175,-54
656878601,-2820,-204,15948,-85,49,-63
656881985,-2684,-212,16100,-52,145,-79
656885454,-2812,-288,15904,-106,39,-51
656888925,-2752,-176,16012,-69,114,-48
656892395,-2872,-248,15888,-131,94,-73
656895865,-2840,-220,15992,-81,48,-99
656899271,-2868,-236,16012,-90,174,-57
656902718,-2860,-172,16020,-99,69,-64
656906136,-2804,-300,15988,-61,177,-81
656909571,-2756,-272,15920,-87,53,-43
656912954,-2768,-248,16048,-92,118,-61
656916424,-2856,-200,16028,-101,75,-82
656919894,-2856,-180,16016,-81,68,-39
656923278,-2760,-312,15916,-135,149,-63
656926859,-2732,-172,15920,-81,62,-54
656930218,-2748,-192,15896,-75,179,-27
656933687,-2808,-164,15860,-118,86,-89
656937157,-2824,-204,15948,-72,132,-41
656940627,-2792,-128,16044,-105,134,-66
656944184,-2832,-224,15968,-77,40,-57
656947568,-2804,-228,16060,-81,195,-67
656951087,-2812,-224,16112,-108,24,-73
656954507,-2868,-220,15984,-69,135,-57
656957977,-2856,-336,16084,-94,72,-59
656961361,-2800,-160,16112,-54,146,-52
656964831,-2804,-280,16036,-127,139,-64
656968387,-2868,-224,15828,-92,43,-56
656971771,-2792,-180,16124,-114,195,-67
656975352,-2804,-220,16088,-84,58,-77
656978711,-2856,-216,16032,-75,162,-61
656982181,-2768,-252,16144,-91,70,-91
656985564,-2736,-152,16036,-79,126,-82
656989034,-2716,-200,16088,-104,88,-56
656992504,-2824,-240,15932,-92,51,-79
656995887,-2776,-240,16020,-101,179,-79
656999467,-2840,-220,16044,-96,27,-76
657002827,-2696,-256,15944,-60,216,-65
657006332,-2856,-164,15884,-110,57,-66
657009767,-2856,-172,16080,-61,153,-39
657013237,-2740,-140,16056,-126,143,-63
657016794,-2772,-264,16064,-70,78,-70
657020177,-2828,-252,16084,-65,167,-54
657023651,-2852,-208,15928,-85,45,-68
657027055,-2672,-216,15984,-103,191,-64
657030587,-2932,-172,15924,-104,84,-78
657034057,-2816,-252,15892,-43,124,-69
657037527,-2828,-188,16000,-104,136,-56
657041084,-2948,-184,15900,-118,59,-78
657044554,-2932,-264,15940,-87,194,-57
657048024,-2800,-244,16020,-95,61,-70
657051510,-2800,-260,15948,-75,136,-46
657054877,-2932,-148,15900,-97,62,-76
657058260,-2680,-272,15976,-72,75,-67
657061644,-2868,-232,15988,-126,140,-72
657065200,-2800,-232,15848,-80,48,-69
657068584,-2784,-184,15948,-89,176,-35
657072054,-2768,-204,16064,-125,57,-55
657075548,-2800,-232,15908,-43,152,-61
657078994,-2804,-216,15804,-93,171,-63
657082464,-2848,-156,15996,-99,66,-59
657085847,-2716,-248,15896,-99,185,-71
657089317,-2832,-172,15948,-103,48,-80
657092787,-2824,-208,16012,-77,181,-49
657096257,-2788,-216,15904,-95,111,-45
657099750,-2772,-352,16104,-65,105,-74
657103197,-2792,-316,15992,-99,154,-75
657106706,-2760,-280,16116,-63,67,-61
657110050,-2744,-212,16020,-70,157,-55
657113520,-2788,-220,16032,-71,57,-61
657116903,-2752,-220,16052,-82,134,-54
657120373,-2780,-188,15980,-126,84,-70
657123847,-2808,-220,15996,-95,60,-64
657127251,-2736,-308,15992,-109,156,-61
657130783,-2892,-224,15952,-95,50,-88
657134167,-2836,-276,16044,-109,178,-27
657137723,-2904,-284,16028,-98,52,-82
657141107,-2716,-184,15928,-50,155,-48
657144577,-2836,-268,15944,-122,52,-85
657148047,-2876,-272,16032,-60,79,-73
657151478,-2824,-224,15912,-115,113,-72
657154987,-2856,-248,15944,-86,45,-59
657158370,-2844,-200,15940,-93,187,-60
657161840,-2836,-196,16004,-111,42,-28
657165310,-2720,-160,16036,-73,160,-42
657168780,-2828,-188,15984,-105,95,-86
657172250,-2828,-232,15884,-63,101,-44
657175744,-2808,-196,15916,-111,162,-66
657179277,-2920,-136,16072,-71,77,-40
657182660,-2856,-260,16060,-53,193,-89
657186130,-2720,-292,15960,-99,49,-52
657189513,-2644,-164,16020,-54,121,-58
657192983,-2896,-188,15976,-120,67,-94
657196453,-2752,-160,16028,-79,100,-72
657199946,-2832,-208,16024,-98,132,-83
657203393,-2960,-188,15884,-84,95,-53
657206811,-2748,-240,15852,-84,194,-76
657210247,-2784,-308,16024,-81,59,-68
657213630,-2644,-276,15920,-65,152,-32
657217100,-2824,-208,15912,-98,48,-69
657220483,-2760,-124,16180,-66,90,-45
657223870,-2820,-132,15892,-109,119,-85
657227448,-2816,-252,16164,-81,53,-61
657230806,-2896,-256,16060,-71,168,-78
657234276,-2868,-208,16068,-95,67,-72
657237660,-2824,-240,15968,-45,176,-43
657241130,-2808,-364,15932,-100,69,-46
657244599,-2756,-236,15936,-61,96,-52
657247983,-2824,-172,15896,-120,126,-56
657251588,-2804,-188,15988,-93,96,-87
657254923,-2804,-292,15944,-100,151,-62
657258480,-2876,-316,15988,-106,44,-42
657261950,-2832,-172,15848,-70,169,-53
657265419,-2784,-176,15920,-110,88,-67
657268890,-2788,-228,15848,-43,115,-56
657272360,-2928,-240,15888,-84,181,-37
657275854,-2872,-172,16076,-82,39,-82
657279213,-2744,-184,15920,-61,163,-48
657282683,-2844,-224,16056,-79,74,-87
657286066,-2932,-200,16032,-92,178,-43
657289536,-2868,-292,15984,-105,73,-79
657293006,-2808,-204,16048,-87,118,-63
657296476,-2808,-272,15920,-109,145,-92
657300056,-2768,-272,15996,-77,37,-48
657303416,-2800,-192,16028,-78,178,-58
657306921,-2772,-240,15972,-113,49,-87
657310356,-2876,-224,15852,-65,173,-84
657313826,-2844,-368,16084,-100,64,-78
657317296,-2824,-124,15808,-72,64,-57
657320679,-2872,-172,16036,-125,132,-62
657324261,-2676,-204,16020,-83,57,-63
657327619,-2804,-268,15928,-88,185,-63
657331089,-2768,-148,15900,-113,52,-75
657334559,-2788,-200,15972,-57,153,-56
657338029,-2820,-212,15876,-116,112,-57
657341586,-2688,-192,15888,-63,74,-86
657344969,-2868,-180,15992,-79,157,-49
657348439,-2724,-200,15992,-98,54,-54
657351871,-2816,-196,16008,-46,132,-66
657355292,-2800,-256,15892,-118,58,-46
657358763,-2836,-308,15960,-65,147,-47
657362233,-2836,-276,15944,-105,153,-80
657365789,-2892,-140,16020,-109,73,-75
657369259,-2716,-240,15976,-87,168,-26
657372729,-2836,-124,15820,-129,63,-92
657376224,-2784,-256,15896,-72,107,-34
657379669,-2852,-232,16092,-104,101,-82
657383226,-2772,-104,15992,-91,73,-76
657386609,-2780,-140,15936,-119,167,-73
657390166,-2776,-268,16044,-89,28,-61
657393549,-2840,-256,15972,-71,179,-50
657397019,-2848,-260,15968,-119,79,-61
657400512,-2836,-260,15832,-64,127,-65
657403959,-2716,-196,15984,-104,149,-86
657407551,-2740,-272,15936,-44,83,-43
657410899,-2824,-268,15860,-87,193,-50
657414369,-2808,-248,15936,-94,46,-72
657417753,-2704,-268,16012,-59,137,-36
657421223,-2796,-280,15972,-103,84,-66
657424717,-2836,-224,16172,-86,50,-32
657428076,-2836,-272,15924,-124,131,-91
657431633,-2832,-276,15948,-87,62,-75
657435016,-2776,-244,16152,-89,179,-59
657438486,-2796,-232,15880,-114,56,-60
657441956,-2748,-252,16084,-72,141,-55
657445426,-2824,-176,15816,-111,139,-77
657448986,-2728,-260,16020,-67,114,-71
657452501,-2824,-160,15872,-102,181,-65
657456009,-2836,-160,15948,-94,63,-63
657459393,-2784,-164,16024,-60,144,-46
657462863,-2824,-184,16028,-108,65,-62
657466333,-2796,-128,16016,-69,94,-94
657469716,-2828,-280,16120,-114,113,-53
657473273,-2716,-244,16044,-74,72,-42
657476680,-2936,-240,16048,-81,187,-64
657480126,-2776,-188,16008,-91,59,-75
657483509,-2776,-180,15952,-41,157,-60
657486979,-2772,-260,15980,-124,66,-54
657490449,-2760,-96,15948,-59,102,-57
657493832,-2792,-256,15924,-108,74,-78
657497302,-2868,-152,15916,-57,52,-64
657500709,-2820,-240,15944,-113,168,-73
657504242,-2784,-180,15956,-86,62,-71
657507660,-2756,-232,16012,-73,174,-61
657511096,-2836,-224,15948,-87,60,-50
657514479,-2768,-236,15996,-54,137,-35
657517949,-2812,-220,16024,-120,61,-70
657521419,-2764,-160,16132,-58,94,-55
657524826,-2768,-160,15932,-114,122,-85
657528359,-2872,-184,16076,-100,67,-85
657531829,-2756,-228,15904,-115,163,-53
657535385,-2904,-180,16000,-115,43,-51
657538856,-2812,-284,15844,-64,162,-69
657542326,-2788,-232,16068,-95,88,-78
657545709,-2744,-252,15956,-79,112,-51
657549239,-2784,-232,15968,-118,158,-63
657552736,-2804,-212,16004,-74,54,-101
657556206,-2688,-116,15928,-76,192,-52
657559676,-2728,-248,15924,-107,41,-59
657563146,-2864,-200,15820,-46,117,-61
657566616,-2844,-236,15992,-116,85,-88
657570086,-2876,-332,16044,-61,74,-47
657573469,-2804,-276,15980,-107,159,-71
657577050,-2948,-172,16036,-87,55,-86
657580409,-2780,-144,15944,-86,202,-64
657583879,-2888,-264,16044,-124,69,-81
657587349,-2808,-240,15948,-45,145,-37
657590819,-2708,-200,15920,-100,115,-53
657594375,-2848,-316,16100,-62,106,-68
657597846,-2776,-144,15988,-118,164,-69
657601426,-2728,-356,15996,-89,67,-54
657604786,-2752,-208,15872,-68,174,-44
657608290,-2836,-184,16124,-84,66,-75
657611639,-2772,-200,15856,-74,169,-58
657615109,-2760,-112,15876,-109,105,-61
657618666,-2864,-240,15956,-70,109,-67
657622136,-2756,-172,16000,-127,161,-63
657625717,-2768,-272,15948,-61,45,-40
657629076,-2836,-260,16080,-79,162,-52
657632546,-2816,-216,15992,-88,72,-78
657635929,-2704,-200,16000,-49,118,-68
657639399,-2700,-184,15956,-109,51,-77
657642869,-2796,-204,15772,-79,82,-57
657646252,-2824,-184,16040,-92,177,-82
657649770,-2816,-208,15992,-86,51,-84
657653105,-2832,-240,15948,-87,180,-49
657656575,-2796,-124,15952,-90,64,-58
657659958,-2836,-168,16012,-84,165,-47
657663429,-2708,-224,16008,-86,52,-81
657666812,-2796,-148,15976,-84,123,-57
657670282,-2888,-36,15964,-104,83,-50
657673669,-2732,-168,16012,-87,75,-48
657677073,-2928,-212,15888,-97,192,-66
657680518,-2832,-160,16108,-101,35,-65
657683988,-2836,-228,15988,-52,172,-63
657687458,-2796,-224,16004,-128,77,-61
657690928,-2864,-240,15980,-71,148,-22
657694403,-2848,-216,15916,-121,160,-83
657697955,-2944,-132,16004,-96,83,-45
657701361,-2852,-140,16084,-81,191,-52
657704808,-2804,-168,15968,-100,62,-67
657708317,-2816,-272,15932,-82,174,-55
657711748,-2796,-196,15916,-114,77,-75
657715218,-2764,-300,15996,-55,138,-48
657718688,-2748,-252,15928,-110,140,-52
657722245,-2848,-244,15968,-94,77,-68
657725653,-2900,-204,15908,-77,175,-60
657729098,-2816,-248,16084,-55,54,-96
657732482,-2852,-204,15960,-72,151,-60
657735952,-2804,-228,15936,-107,52,-54
657739421,-2848,-212,15844,-71,113,-42
657742892,-2884,-268,15956,-101,111,-62
657746448,-2828,-188,16036,-78,50,-61
657749880,-2828,-212,15912,-131,198,-56
657753388,-2840,-300,15936,-88,43,-62
657756771,-2812,-168,15916,-68,157,-49
657760242,-2784,-236,15832,-104,94,-75
657763712,-2820,-220,15968,-56,132,-57
657767181,-2784,-164,15936,-119,162,-72
657770738,-2804,-240,16012,-62,92,-47
657774146,-2836,-356,16024,-118,155,-62
657777678,-2816,-204,15936,-102,52,-64
657781148,-2756,-252,15876,-56,153,-60
657784618,-2912,-188,15888,-108,53,-85
657788088,-2924,-204,15964,-80,140,-47
657791558,-2676,-200,15916,-116,82,-72
657795028,-2768,-180,16044,-94,61,-47
657798411,-2848,-152,15972,-110,168,-80
657801991,-2784,-268,16036,-103,47,-74
657805438,-2972,-192,15968,-93,193,-55
657808943,-2864,-212,15948,-123,66,-47
657812378,-2792,-200,16012,-49,150,-63
657815848,-2876,-280,16032,-108,55,-47
657819318,-2744,-268,16124,-62,108,-49
657822788,-2748,-172,15936,-108,101,-59
657826370,-2812,-200,16096,-102,62,-40
657829815,-2836,-212,15960,-91,152,-65
657833285,-2748,-172,15788,-104,67,-68
657836755,-2844,-184,16112,-68,176,-55
657840225,-2884,-276,16036,-112,82,-63
657843695,-2664,-80,16052,-56,136,-46
657847078,-2780,-244,16016,-113,152,-63
657850683,-2876,-284,15892,-85,63,-63
657854018,-2856,-168,15864,-58,139,-62
657857488,-2820,-224,15932,-66,68,-73
657860871,-2804,-232,16012,-55,113,-37
657864342,-2832,-228,16144,-126,91,-61
657867812,-2748,-332,15896,-74,68,-66
657871195,-2872,-228,15964,-111,164,-67
657874776,-2764,-232,15984,-91,47,-73
657878135,-2852,-148,16060,-60,189,-62
657881605,-2852,-340,16004,-91,32,-54
657884988,-2764,-200,15824,-69,92,-47
657888371,-2864,-176,15868,-128,113,-56
657891928,-2976,-144,16104,-73,63,-78
657895311,-2784,-292,16008,-100,167,-52
657898871,-2916,-224,15980,-113,81,-64
657902361,-2720,-252,16012,-73,119,-58
657905808,-2760,-200,16004,-109,152,-76
657909400,-2872,-228,16032,-82,85,-76
657912748,-2668,-180,16116,-96,154,-62
657916218,-2736,-216,16064,-103,48,-70
657919688,-2844,-332,15952,-79,157,-68
657923158,-2792,-172,16040,-82,71,-33
657926566,-2792,-192,15960,-83,138,-58
657930011,-2804,-272,16064,-86,77,-80
657933395,-2828,-236,16020,-72,58,-42
657936778,-2728,-196,15996,-136,139,-91
657940335,-2824,-172,15896,-55,96,-76
657943718,-2888,-200,15992,-87,195,-52
657947188,-2808,-296,15976,-93,30,-45
657950620,-2828,-188,16020,-50,171,-80
657954041,-2808,-256,16072,-96,62,-56
657957424,-2864,-256,15972,-70,99,-55
657960807,-2888,-140,16024,-94,103,-43
657964278,-2908,-252,16092,-90,59,-77
657967661,-2816,-228,16036,-104,162,-90
657971217,-2776,-284,16044,-72,65,-72
657974625,-2752,-212,16024,-81,163,-67
657978071,-2840,-304,16100,-92,61,-68
657981454,-2904,-276,16020,-51,168,-43
657984924,-2752,-200,15964,-101,52,-54
657988394,-2708,-228,16068,-69,96,-67
657991777,-2776,-268,15904,-112,117,-53
657995334,-2744,-152,15964,-78,62,-56
657998721,-2852,-196,15944,-111,148,-45
658002297,-2740,-168,16044,-80,82,-63
658005657,-2892,-256,16048,-89,187,-66
658009131,-2888,-248,16120,-107,93,-56
658012632,-2788,-216,15972,-73,124,-56
658016067,-2800,-296,15896,-122,172,-53
658019624,-2780,-240,15904,-90,103,-59
658023094,-2836,-288,15956,-69,169,-52
658026588,-2788,-256,16136,-90,39,-43
658029947,-2728,-164,16008,-74,207,-71
658033417,-2812,-212,15912,-106,65,-64
658036887,-2748,-172,15900,-66,133,-66
658040357,-2756,-156,15884,-116,132,-55
658043914,-2824,-264,16092,-85,70,-69
658047297,-2748,-224,15888,-85,157,-66
658050870,-2876,-192,15848,-94,30,-65
658054150,-2676,-260,16000,-60,170,-65
658057621,-2780,-136,15868,-115,70,-56
658061091,-2876,-300,16116,-66,114,-65
658064560,-2788,-236,15936,-121,93,-97
658068030,-2804,-308,15952,-90,53,-80
658071414,-2856,-136,15972,-108,192,-51
658074995,-2940,-232,15988,-91,37,-91
658078354,-2812,-232,16012,-40,158,-30
658081824,-2712,-232,16036,-121,99,-85
658085294,-2856,-68,16064,-56,100,-41
658088677,-2812,-192,16024,-90,89,-50
658092060,-2736,-216,15988,-95,71,-50
658095444,-2784,-156,16092,-97,168,-66
658098917,-2860,-144,15988,-111,77,-44
658102407,-2852,-272,15984,-59,170,-42
658105854,-2876,-220,15984,-114,81,-70
658109323,-2812,-252,16004,-67,136,-60
658112832,-2856,-248,15980,-101,121,-70
658116350,-2812,-212,16020,-77,84,-61
658119734,-2812,-188,16128,-84,179,-55
658123203,-2856,-172,16064,-98,50,-66
658126611,-2816,-340,15920,-65,182,-21
658130057,-2736,-256,16000,-113,31,-70
658133527,-2888,-160,15896,-34,161,-67
658136997,-2792,-92,16036,-119,144,-54
658140467,-2824,-212,15960,-62,65,-73
658143850,-2716,-216,16016,-66,169,-66
658147320,-2764,-184,15984,-83,59,-63
658150752,-2828,-256,15972,-64,120,-57
658154173,-2772,-212,16020,-107,71,-52
658157643,-2816,-200,15880,-56,83,-42
658161027,-2856,-208,15992,-110,115,-60
658164583,-2772,-164,16100,-78,49,-62
658167967,-2760,-192,15788,-107,159,-89
658171523,-2704,-280,15840,-83,54,-82
658174931,-2768,-256,16136,-62,171,-51
658178377,-2856,-164,16020,-91,100,-82
658181846,-2748,-216,16048,-72,135,-28
658185317,-2820,-188,15928,-110,78,-87
658188787,-2792,-240,15960,-74,59,-57
658192170,-2824,-208,15912,-110,127,-73
658195726,-2752,-248,15928,-86,35,-85
658199133,-2808,-184,16156,-85,183,-65
658202580,-2760,-132,16124,-105,49,-61
658206050,-2848,-240,15892,-69,171,-59
658209520,-2836,-284,15988,-112,132,-70
658213111,-2824,-232,16032,-72,90,-27
658216460,-2804,-156,15924,-90,191,-46
658219930,-2820,-172,15936,-64,44,-64
658223313,-2828,-216,16036,-58,177,-50
658226808,-2828,-216,15972,-85,27,-97
658230166,-2804,-232,16048,-47,123,-48
658233636,-2808,-236,15944,-143,88,-102
658237193,-2788,-296,15988,-79,58,-50
658240576,-2804,-232,15904,-90,186,-69
658244046,-2812,-184,15892,-82,67,-70
658247429,-2888,-228,15992,-52,176,-48
658250948,-2824,-212,15932,-97,61,-64
658254283,-2776,-156,16116,-71,145,-60
658257753,-2808,-188,15852,-108,68,-52
658261223,-2796,-196,15956,-82,84,-65
658264606,-2776,-188,16036,-106,124,-63
658268163,-2788,-208,15916,-82,45,-78
658271546,-2916,-168,15896,-104,191,-32
658275127,-2812,-124,15768,-102,58,-68
658278573,-2824,-172,16048,-51,176,-77
658282043,-2792,-224,15976,-129,111,-99
658285600,-2912,-300,16172,-63,103,-41
658289069,-2840,-208,15964,-109,164,-55
658292626,-2824,-260,16108,-65,53,-72
658296010,-2832,-152,15904,-94,178,-40
658299503,-2884,-260,15956,-76,56,-51
658302863,-2772,-128,16020,-46,100,-83
658306333,-2812,-204,15824,-129,79,-40
658309803,-2796,-156,15968,-73,103,-75
658313308,-2804,-256,15820,-116,154,-42
658316830,-2708,-216,16100,-122,53,-58
658320299,-2836,-152,15940,-69,180,-38
658323773,-2780,-140,16096,-120,74,-101
658327351,-2824,-204,15992,-64,128,-63
658330796,-2816,-204,16004,-95,147,-68
658334266,-2864,-184,16012,-93,61,-64
658337649,-2828,-268,16152,-129,163,-66
658341206,-2704,-244,15904,-77,76,-59
658344589,-2848,-216,15996,-92,170,-40
658348059,-2848,-228,15872,-91,74,-53
658351491,-2812,-220,15924,-69,135,-50
658354913,-2760,-228,15888,-119,109,-48
658358469,-2760,-204,15996,-100,104,-39
658362026,-2888,-232,15968,-112,181,-71
658365583,-2736,-168,16080,-97,58,-46
658368966,-2824,-172,16048,-51,170,-62
658372436,-2812,-272,16024,-92,50,-89
658375844,-2876,-280,15872,-43,62,-54
658379203,-2824,-200,15992,-120,111,-65
658382760,-2788,-164,15932,-98,66,-57
658386143,-2788,-300,16052,-92,151,-78
658389613,-2792,-204,15872,-107,54,-91
658393083,-2720,-300,15896,-80,187,-60
658396553,-2828,-188,15976,-131,78,-67
658400046,-2796,-128,15920,-70,141,-54
658403493,-2672,-216,16156,-115,133,-76
658407050,-2792,-204,15860,-95,93,-75
658410433,-2760,-256,15760,-58,197,-66
658413938,-2788,-240,16036,-110,19,-38
658417373,-2804,-248,16132,-105,182,-70
658420930,-2792,-120,15968,-121,61,-82
658424424,-2820,-200,15824,-62,87,-46
658427783,-2772,-240,15984,-96,108,-77
658431253,-2784,-200,15960,-70,78,-53
658434636,-2812,-228,16152,-81,187,-85
658438106,-2896,-232,15784,-90,56,-51
658441489,-2860,-228,15964,-65,181,-60
658444959,-2836,-224,15896,-111,31,-67
658448429,-2716,-260,16052,-67,89,-79
658451861,-2776,-340,15924,-90,141,-61
658455283,-2796,-188,15952,-121,59,-58
658458752,-2788,-212,16012,-78,188,-65
658462223,-2680,-212,16012,-106,71,-71
658465692,-2836,-196,16004,-61,178,-58
658469163,-2752,-220,15952,-125,91,-77
658472633,-2772,-292,16100,-46,92,-58
658476040,-2764,-196,16024,-122,129,-69
658479573,-2856,-252,16008,-101,60,-46
658483042,-2920,-208,15892,-82,190,-38
658486513,-2896,-124,15972,-79,76,-55
658489896,-2920,-280,16032,-74,123,-61
658493366,-2728,-224,15912,-114,133,-69
658496923,-2888,-208,15988,-69,107,-65
658500416,-2872,-208,15936,-108,151,-58
658503949,-2740,-272,15972,-86,44,-67
658507333,-2788,-240,15956,-85,181,-61
658510802,-2816,-184,15816,-94,28,-62
658514221,-2812,-168,16036,-64,112,-53
658517656,-2776,-184,16068,-98,65,-62
658521039,-2864,-196,15908,-77,69,-54
658524447,-2772,-204,15984,-120,105,-67
658527979,-2724,-220,16112,-110,33,-62
658531449,-2772,-192,16008,-92,167,-70
658534919,-2872,-144,16028,-102,53,-80
658538389,-2772,-164,15852,-61,151,-35
658541859,-2812,-176,15892,-114,103,-69
658545416,-2796,-248,16036,-70,105,-71
658548889,-2860,-248,15828,-115,164,-67
658552503,-2748,-256,16024,-92,62,-76
658555826,-2828,-184,16056,-80,172,-61
658559296,-2892,-276,15984,-86,63,-88
658562679,-2868,-312,15856,-94,171,-64
658566149,-2864,-296,15988,-122,76,-88
658569619,-2708,-156,15852,-53,142,-18
658573089,-2860,-248,15860,-136,101,-68
658576670,-2792,-248,15968,-83,87,-73
658580029,-2884,-284,16036,-94,166,-58
658583499,-2852,-336,15972,-85,54,-71
658586882,-2844,-228,15960,-69,194,-85
658590352,-2784,-256,15932,-87,31,-64
658593735,-2828,-164,16028,-83,134,-41
658597206,-2804,-176,15972,-99,78,-90
658600612,-2920,-180,15912,-84,163,-53
658604059,-2860,-232,15772,-103,112,-97
658607616,-2856,-184,15972,-107,60,-73
658611085,-2864,-232,15884,-95,180,-40
658614590,-2804,-204,15948,-113,47,-66
658618026,-2788,-360,16068,-59,147,-60
658621496,-2752,-356,15932,-101,55,-63
658624990,-2836,-280,15892,-74,108,-57
658628436,-2920,-216,15908,-105,107,-77
658631992,-2848,-224,15968,-92,27,-55
658635375,-2864,-68,15920,-82,191,-60
658638759,-2780,-128,16012,-80,69,-80
658642142,-2788,-124,16096,-73,151,-42
658645612,-2860,-172,15928,-144,88,-70
658649130,-2872,-204,16000,-37,123,-67
658652552,-2772,-212,15924,-113,162,-52
658656109,-2776,-212,16056,-80,43,-55
658659492,-2824,-268,15916,-94,179,-66
658662962,-2848,-256,15980,-104,39,-72
658666432,-2736,-276,15972,-50,107,-71
658669902,-2772,-124,15996,-115,92,-56
658673372,-2736,-136,15920,-89,62,-50
658676780,-2776,-272,15900,-112,168,-50
658680312,-2920,-160,16144,-67,46,-58
658683695,-2768,-280,15984,-92,166,-79
658687165,-2784,-244,15968,-92,50,-54
658690549,-2860,-204,15852,-82,88,-61
658693932,-2880,-152,16112,-127,112,-70
658697488,-2820,-228,16004,-94,84,-79
658700895,-2848,-176,15880,-94,149,-64
658704342,-2880,-224,15896,-113,41,-60
658707812,-2704,-264,15880,-70,173,-66
658711282,-2792,-200,16048,-113,96,-76
658714787,-2780,-244,15888,-79,106,-63
658718222,-2628,-192,15960,-58,185,-47
658721692,-2844,-184,15920,-90,47,-87
658725100,-2820,-244,15964,-92,157,-63
658728545,-2820,-132,15996,-102,47,-77
658732015,-2728,-240,16044,-80,177,-54
658735485,-2748,-172,16012,-138,124,-36
658739042,-2836,-204,15960,-56,104,-54
658742512,-2760,-276,16152,-133,163,-65
658746069,-2888,-188,15848,-66,51,-80
658749500,-2808,-168,15984,-78,186,-47
658752922,-2796,-260,15888,-100,73,-99
658756392,-2720,-244,15884,-63,127,-41
658759862,-2808,-164,16008,-105,63,-89
658763332,-2732,-216,15900,-64,96,-46
658766715,-2812,-204,15952,-125,125,-47
658770272,-2856,-160,15892,-63,55,-70
658773659,-2864,-240,15844,-97,179,-57
658777150,-2752,-208,15976,-101,57,-62
658780595,-2840,-172,15960,-54,149,-45
658784065,-2824,-216,16044,-122,118,-74
658787622,-2792,-240,15944,-100,98,-39
658791092,-2816,-244,16040,-82,183,-55
658794562,-2812,-312,15904,-80,52,-74
658797945,-2860,-188,16076,-83,171,-52
658801438,-2784,-152,16028,-107,42,-65
658804885,-2772,-264,15956,-36,121,-58
658808355,-2788,-156,15936,-126,84,-66
658811825,-2912,-132,15952,-89,96,-62
658815243,-2772,-260,16012,-107,150,-100
658818852,-2892,-120,15988,-98,60,-65
658822235,-2812,-244,15920,-57,171,-57
658825729,-2864,-284,16116,-96,57,-77
658829088,-2728,-316,15980,-75,114,-50
658832558,-2824,-284,16036,-118,70,-55
658836028,-2724,-288,16036,-93,83,-67
658839411,-2784,-192,16004,-132,125,-67
658842968,-2856,-172,15968,-82,25,-75
658846351,-2688,-136,15952,-107,215,-55
658849957,-2784,-244,15780,-111,53,-61
658853378,-2748,-120,16020,-69,122,-76
658856848,-2760,-260,16040,-112,137,-56
658860405,-2748,-248,15844,-69,112,-71
658863875,-2804,-284,15916,-111,159,-62
658867432,-2812,-228,15956,-68,73,-68
658870815,-2836,-164,16028,-66,142,-48
658874309,-2804,-192,16180,-109,55,-56
658877755,-2836,-224,16004,-46,105,-43
658881225,-2848,-240,15888,-120,89,-72
658884695,-2768,-256,16056,-102,83,-71
658888165,-2792,-324,16144,-122,148,-64
658891722,-2792,-272,15960,-96,62,-57
658895105,-2860,-232,15784,-79,183,-47
658898579,-2824,-272,15928,-94,49,-74
658901982,-2792,-160,15944,-53,135,-54
658905428,-2788,-236,15880,-132,156,-59
658908985,-2816,-192,15860,-59,101,-60
658912455,-2796,-268,15972,-83,160,-79
658915960,-2756,-176,15852,-99,57,-84
658919308,-2852,-164,15948,-45,162,-47
658922778,-2852,-288,16120,-130,71,-70
658926273,-2696,-188,16084,-83,140,-55
658929718,-2804,-228,15916,-127,113,-74
658933275,-2868,-156,16024,-81,84,-68
658936658,-2812,-232,16144,-107,162,-45
658940215,-2856,-148,16044,-108,63,-80
658943685,-2876,-140,16048,-65,121,-74
658947155,-2776,-224,16140,-119,64,-50
658950674,-2868,-188,15940,-70,79,-78
658954008,-2824,-272,16008,-135,115,-35
658957565,-2772,-172,15844,-77,48,-75
658960948,-2732,-276,16112,-100,198,-70
658964505,-2840,-244,16116,-92,33,-79
658967888,-2796,-216,15976,-84,159,-58
658971358,-2812,-268,15952,-109,86,-84
658974853,-2836,-336,16044,-49,105,-60
658978298,-2836,-252,15964,-126,179,-56
658981855,-2748,-228,15880,-71,53,-61
658985238,-2804,-240,16068,-62,161,-48
658988708,-2740,-248,15896,-108,62,-42
658992178,-2840,-240,15972,-54,119,-66
658995648,-2836,-248,16092,-104,118,-72
658999228,-2716,-256,16060,-109,41,-67
659002675,-2832,-204,16088,-109,165,-67
659006232,-2828,-224,15868,-110,43,-61
659009702,-2800,-184,16048,-79,156,-74
659013172,-2900,-148,16020,-95,94,-53
659016590,-2772,-184,16000,-72,116,-35
659020025,-2740,-264,15956,-88,143,-96
659023498,-2792,-240,15940,-109,85,-47
659026989,-2792,-136,16032,-60,172,-73
659030435,-2808,-256,16044,-118,47,-61
659033905,-2828,-176,15828,-57,140,-44
659037375,-2716,-268,15920,-108,54,-69
659040845,-2776,-276,16012,-60,172,-67
659044315,-2820,-204,15932,-117,116,-52
659047872,-2772,-288,16120,-72,59,-64
659051358,-2844,-244,16112,-104,176,-77
659054812,-2716,-100,16028,-98,60,-44
659058195,-2744,-268,16052,-70,165,-34
659061665,-2892,-268,16024,-100,54,-70
659065135,-2828,-200,15860,-85,99,-34
659068518,-2756,-136,15828,-105,73,-55
659071988,-2792,-228,16008,-118,71,-72
659075483,-2836,-292,15976,-86,159,-58
659078928,-2708,-132,16076,-77,25,-58
659082312,-2832,-216,15928,-94,174,-71
659085781,-2836,-192,15980,-130,81,-80
659089252,-2848,-216,16096,-54,112,-36
659092722,-2804,-224,15892,-112,180,-48
659096278,-2816,-192,15948,-69,56,-65
659099685,-2788,-236,16032,-85,178,-108
659103218,-2676,-148,15924,-98,52,-44
659106602,-2852,-152,15960,-39,120,-54
659110071,-2848,-196,16016,-101,62,-76
659113541,-2740,-204,16012,-68,143,-47
659117050,-2708,-208,16016,-111,146,-41
659120568,-2836,-144,16044,-97,53,-65
659123976,-2816,-232,16028,-87,171,-81
659127422,-2844,-268,16024,-94,51,-64
659130805,-2716,-260,16032,-64,167,-39
659134275,-2812,-252,16068,-117,41,-63
659137745,-2776,-256,15928,-79,113,-58
659141215,-2844,-236,16044,-120,107,-101
659144858,-2808,-312,15932,-57,20,-59
659148242,-2832,-204,15952,-100,166,-60
659151847,-2884,-204,15964,-120,60,-69
659155268,-2832,-280,15968,-66,162,-45
659158738,-2780,-260,15992,-142,92,-78
659162208,-2840,-308,15988,-54,128,-57
659165678,-2752,-228,16028,-109,139,-54
659169235,-2804,-160,16024,-73,57,-50
659172618,-2800,-228,15856,-84,172,-50
659176113,-2868,-256,15924,-93,54,-57
659179471,-2744,-204,15944,-58,114,-40
659182941,-2780,-240,15896,-107,71,-75
659186412,-2880,-232,15900,-76,54,-73
659189795,-2824,-212,15992,-137,194,-57
659193352,-2812,-96,15980,-109,53,-58
659196735,-2720,-64,15952,-90,169,-53
659200141,-2780,-120,15864,-99,67,-58
659203501,-2808,-248,16064,-65,120,-44
659206971,-2776,-292,16200,-117,103,-55
659210528,-2800,-200,16132,-103,59,-56
659213998,-2728,-220,15948,-85,167,-69
659217503,-2796,-184,16148,-102,33,-84
659220938,-2780,-248,15996,-88,191,-54
659224433,-2828,-288,16020,-107,87,-80
659227878,-2784,-152,16000,-71,120,-65
659231348,-2912,-220,15944,-112,155,-88
659234905,-2848,-268,15932,-93,64,-49
659238288,-2740,-256,15848,-86,184,-56
659241758,-2824,-192,15996,-105,48,-68
659245228,-2788,-208,16032,-74,152,-45
659248701,-2784,-280,16044,-100,52,-62
659252216,-2776,-248,15988,-62,68,-75
659255551,-2848,-112,16052,-124,135,-92
659259108,-2968,-264,16088,-82,51,-29
659262491,-2728,-224,15764,-69,192,-70
659265961,-2844,-272,15864,-101,44,-84
659269431,-2864,-284,16040,-47,147,-52
659272901,-2760,-328,15944,-96,74,-49
659276309,-2856,-220,15888,-80,96,-66
659279668,-2800,-212,15844,-116,102,-87
659283225,-2844,-236,15932,-105,52,-47
659286695,-2880,-148,15892,-119,190,-72
659290251,-2804,-340,15940,-84,61,-71
659293639,-2820,-256,16000,-58,169,-64
659297104,-2800,-336,15896,-136,104,-94
659300684,-2844,-268,16036,-66,111,-84
659304131,-2788,-208,16148,-122,165,-61
659307688,-2816,-200,16024,-77,55,-58
659311071,-2740,-220,16004,-69,193,-85
659314541,-2836,-236,15836,-107,45,-50
659318046,-2808,-188,15956,-64,123,-42
659321481,-2800,-276,16056,-119,80,-88
659324976,-2788,-248,15948,-82,83,-43
659328335,-2788,-236,15916,-121,146,-57
659331891,-2812,-224,15980,-80,55,-62
659335274,-2736,-212,15996,-122,174,-76
659338831,-2752,-188,16016,-89,60,-71
659342214,-2868,-172,16036,-47,139,-57
659345684,-2820,-252,15924,-112,133,-72
659349290,-2828,-236,16096,-68,91,-71
659352624,-2804,-188,15960,-91,178,-57
659356094,-2776,-224,15944,-82,82,-82
659359478,-2700,-204,15996,-92,184,-72
659362948,-2840,-124,16060,-124,71,-81
659366418,-2772,-188,15960,-38,157,-29
659369888,-2804,-244,15988,-100,113,-72
659373448,-2976,-112,15960,-70,83,-47
659376852,-2848,-144,15960,-96,156,-49
659380298,-2828,-140,16084,-83,75,-67
659383681,-2812,-260,15872,-60,183,-56
659387151,-2812,-200,16088,-97,66,-72
659390534,-2760,-344,15840,-81,110,-73
659394004,-2872,-184,16016,-96,77,-61
659397388,-2792,-128,15980,-55,133,-40
659400881,-2720,-328,16068,-116,178,-79
659404414,-2764,-236,15888,-88,54,-68
659407798,-2848,-204,15860,-83,164,-55
659411267,-2812,-136,16008,-90,50,-68
659414651,-2748,-252,15972,-60,107,-43
659418156,-2808,-232,16116,-124,93,-70
659421591,-2748,-184,15864,-81,50,-45
659424999,-2804,-192,15872,-120,161,-64
659428531,-2880,-256,15964,-76,47,-70
659431914,-2944,-264,15900,-72,194,-48
659435384,-2888,-248,16128,-91,98,-67
659438767,-2840,-224,16048,-81,140,-46
659442237,-2780,-228,15868,-132,131,-82
659445794,-2760,-164,15924,-81,97,-56
659449226,-2868,-180,15988,-85,180,-75
659452647,-2776,-200,16076,-83,59,-41
659456030,-2780,-204,16036,-114,171,-54
659459587,-2956,-176,15960,-111,71,-92
659463057,-2860,-252,16008,-90,153,-87
659466527,-2836,-196,15888,-137,111,-46
659470084,-2844,-188,15960,-95,120,-68
659473557,-2632,-196,15992,-112,166,-66
659477135,-2844,-112,16100,-99,45,-96
659480494,-2808,-200,16068,-66,149,-53
659483964,-2792,-204,15896,-97,48,-78
659487347,-2704,-204,15860,-61,98,-47
659490730,-2808,-292,16096,-120,110,-64
659494287,-2792,-276,15976,-81,58,-76
659497671,-2824,-220,16008,-116,183,-49
659501250,-2804,-204,15988,-109,58,-85
659504697,-2848,-132,16076,-79,171,-36
659508167,-2792,-236,15968,-132,68,-64
659511637,-2880,-132,15868,-46,132,-37
659515107,-2856,-144,15964,-126,126,-64
659518699,-2736,-220,15888,-57,100,-65
659522134,-2704,-232,16008,-107,207,-51
659525715,-2764,-232,15968,-81,47,-91
659529074,-2844,-264,16072,-67,182,-60
659532544,-2820,-276,16120,-101,60,-78
659536014,-2820,-208,15860,-89,91,-52
659539397,-2828,-220,16048,-119,137,-61
659542954,-2832,-248,15888,-84,75,-77
659546337,-2832,-276,15856,-104,192,-52
659549955,-2820,-276,15992,-112,43,-73
659553364,-2792,-224,15836,-53,165,-55
659556834,-2788,-300,15964,-97,109,-75
659560304,-2736,-176,15960,-64,93,-45
659563687,-2756,-304,15980,-125,110,-45
659567244,-2788,-220,15964,-92,81,-39
659570627,-2864,-184,16016,-101,129,-86
659574209,-2828,-236,16024,-93,55,-45
659577567,-2804,-140,16128,-105,173,-47
659581124,-2724,-300,15896,-92,66,-69
659584507,-2828,-252,16072,-67,128,-60
659587977,-2704,-248,15924,-129,126,-71
659591534,-2792,-352,15900,-66,87,-90
659594917,-2864,-164,15924,-83,152,-45
659598391,-2808,-140,15988,-77,41,-60
659601794,-2864,-220,15928,-77,154,-63
659605241,-2792,-244,15960,-114,68,-64
659608711,-2872,-232,15964,-49,131,-68
659612181,-2796,-244,15904,-102,75,-77
659615650,-2824,-176,15964,-73,85,-68
659619069,-2832,-188,16028,-139,136,-51
659622591,-2700,-292,15932,-77,41,-69
659625998,-2836,-196,15988,-113,168,-52
659629531,-2764,-180,15860,-102,45,-73
659633000,-2844,-272,16000,-73,190,-75
659636470,-2832,-280,15892,-126,78,-77
659639940,-2816,-228,15916,-60,128,-47
659643411,-2720,-160,15884,-120,174,-55
659646967,-2852,-212,15976,-85,102,-69
659650486,-2912,-284,16136,-59,187,-83
659653907,-2864,-172,16088,-84,62,-45
659657290,-2772,-272,15968,-74,163,-49
659660761,-2780,-244,15960,-108,75,-67
659664231,-2748,-264,15996,-59,153,-31
659667700,-2824,-144,16108,-107,143,-61
659671257,-2812,-244,15972,-81,54,-67
659674665,-2732,-128,15980,-83,183,-51
659678110,-2844,-200,16000,-91,54,-74
659681494,-2924,-216,16000,-61,142,-51
659684964,-2848,-264,16036,-109,75,-71
659688434,-2788,-224,15988,-68,88,-67
659691817,-2804,-184,15824,-101,118,-47
659695374,-2804,-204,16024,-83,52,-67
659698761,-2828,-240,15964,-112,184,-17
659702337,-2728,-268,16020,-110,96,-49
659705784,-2816,-200,15948,-60,155,-57
659709254,-2816,-272,15840,-127,136,-67
659712811,-2844,-248,16012,-59,106,-34
659716280,-2668,-164,15856,-84,192,-29
659719786,-2772,-244,15940,-79,35,-66
659723134,-2792,-296,15988,-83,154,-66
659726628,-2856,-172,15992,-93,65,-55
659729987,-2748,-232,15880,-79,168,-53
659733457,-2880,-260,16000,-129,110,-58
659737014,-2824,-276,15896,-101,79,-58
659740484,-2736,-160,16008,-117,145,-47
659744041,-2744,-168,16060,-95,35,-59
659747424,-2940,-320,16024,-72,158,-78
659750942,-2868,-172,16032,-129,146,-84
659754451,-2820,-232,15984,-56,80,-49
659757834,-2844,-304,16008,-121,103,-67
659761390,-2792,-232,15908,-82,78,-62
659764774,-2748,-156,16004,-103,162,-63
659768331,-2844,-232,15944,-85,43,-62
659771714,-2864,-124,15980,-57,167,-65
659775208,-2848,-228,15956,-109,95,-83
659778654,-2740,-252,15980,-68,140,-27
659782124,-2880,-212,15904,-107,169,-73
659785680,-2840,-236,16072,-86,84,-49
659789064,-2780,-256,15968,-75,169,-71
659792534,-2760,-192,16056,-96,61,-52
659795917,-2852,-216,15792,-66,99,-57
659799323,-2868,-212,15736,-117,112,-88
659802857,-2672,-128,15868,-89,73,-98
659806240,-2876,-228,15936,-117,155,-37
659809797,-2772,-152,15868,-111,63,-100
659813354,-2696,-184,16040,-69,159,-66
659816824,-2808,-180,16012,-133,96,-67
659820329,-2820,-260,16044,-55,122,-70
659823767,-2812,-196,15988,-90,170,-82
659827258,-2692,-208,16088,-71,47,-76
659830617,-2744,-200,16004,-94,189,-46
659834087,-2868,-208,15916,-113,51,-84
659837557,-2808,-188,16004,-76,181,-43
659841027,-2820,-160,16040,-109,56,-55
659844497,-2860,-268,16156,-72,144,-59
659847967,-2808,-244,16020,-116,150,-71
659851572,-2888,-264,16100,-98,55,-35
659854907,-2748,-168,15912,-75,199,-36
659858377,-2816,-288,15916,-56,53,-66
659861760,-2800,-280,16000,-61,140,-80
659865230,-2828,-204,15996,-101,53,-83
659868700,-2840,-204,15924,-69,106,-54
659872170,-2888,-164,15944,-111,107,-57
659875751,-2868,-300,15980,-56,39,-83
659879110,-2804,-276,16020,-118,171,-71
659882667,-2776,-268,15916,-105,50,-74
659886137,-2672,-192,15768,-58,148,-19
659889607,-2844,-176,15956,-122,138,-65
659893164,-2840,-284,15992,-62,76,-74
659896547,-2772,-156,15884,-69,189,-46
659900040,-2780,-124,15924,-91,62,-60
659903400,-2784,-204,15940,-63,163,-60
659906870,-2828,-280,15996,-99,34,-88
659910253,-2892,-172,16056,-65,145,-48
659913724,-2824,-284,16092,-129,110,-85
659917280,-2804,-216,16048,-81,74,-95
659920699,-2808,-192,15968,-122,166,-77
659924245,-2788,-204,16088,-86,53,-92
659927603,-2852,-228,15944,-77,181,-52
659931074,-2856,-188,16044,-80,52,-77
659934457,-2904,-228,15896,-37,139,-43
659937927,-2892,-228,15984,-109,73,-101
659941483,-2848,-312,16064,-89,81,-45
659944867,-2748,-324,15948,-104,129,-68
659948427,-2732,-268,15900,-88,28,-66
659951856,-2776,-192,16020,-98,183,-80
659955277,-2832,-212,16024,-101,58,-66
659958747,-2824,-252,15772,-81,147,-53
659962217,-2788,-268,15916,-111,110,-72
659965774,-2824,-272,16080,-83,74,-52
659969157,-2704,-256,15844,-99,179,-67
659972627,-2800,-196,15900,-85,68,-70
659976035,-2772,-296,15936,-59,169,-33
659979480,-2708,-184,16056,-99,47,-77
659982863,-2792,-188,15960,-53,150,-62
659986333,-2768,-240,15904,-117,106,-60
659989890,-2820,-116,16016,-63,94,-66
659993273,-2888,-164,15968,-79,179,-52
659996743,-2848,-248,15952,-112,38,-62
660000237,-2868,-208,16084,-52,124,-59
660003683,-2756,-264,15912,-103,77,-91
660007153,-2744,-200,15980,-55,86,-75
660010536,-2836,-188,15992,-90,96,-61
660013920,-2792,-204,15852,-85,57,-71
660017303,-2724,-200,15972,-113,169,-59
660020895,-2708,-208,15904,-86,56,-68
660024267,-2752,-256,15996,-81,161,-58
660027713,-2792,-228,15936,-103,53,-76
660031183,-2780,-212,16052,-61,116,-45
660034653,-2696,-264,16032,-117,113,-87
660038210,-2780,-288,15908,-84,54,-54
660041593,-2736,-232,15928,-115,175,-71
660045150,-2828,-200,15944,-89,42,-76
660048536,-2892,-164,15824,-70,184,-62
660052118,-2780,-212,15980,-105,90,-73
660055473,-2864,-228,15964,-79,148,-66
660058943,-2832,-264,15820,-132,118,-47
660062500,-2824,-216,15988,-86,86,-60
660065883,-2852,-224,15992,-77,179,-59
660069353,-2784,-280,16040,-101,61,-89
660072823,-2828,-164,15988,-62,114,-59
660076316,-2712,-240,15996,-105,84,-67
660079763,-2864,-260,15892,-66,50,-50
660083146,-2856,-212,16012,-119,168,-69
660086703,-2844,-152,16000,-91,57,-68
660090090,-2764,-300,15960,-74,163,-43
660093577,-2892,-316,16004,-109,67,-65
660097026,-2888,-216,16036,-50,149,-66
660100520,-2776,-212,15840,-112,133,-75
660104053,-2760,-124,16032,-91,64,-68
660107436,-2816,-236,15872,-118,137,-100
660111080,-2728,-124,15988,-97,53,-76
660114463,-2832,-232,15936,-58,149,-48
660117933,-2760,-256,16052,-114,73,-70
660121442,-2732,-244,16140,-44,93,-46
660124811,-2840,-228,15976,-125,148,-57
660128343,-2888,-232,15984,-69,96,-58
660131726,-2872,-288,15920,-92,190,-85
660135196,-2804,-172,15968,-76,41,-51
660138580,-2784,-188,15980,-53,161,-64
660142050,-2856,-216,15916,-106,52,-71
660145519,-2752,-228,16036,-66,119,-38
660149038,-2816,-192,15876,-99,105,-68
660152459,-2808,-352,15972,-99,52,-59
660155843,-2700,-212,15956,-95,180,-64
660159313,-2812,-172,15872,-109,48,-74
660162783,-2800,-68,15956,-72,161,-67
660166166,-2760,-148,15808,-89,49,-80
660169549,-2804,-144,16012,-69,87,-45
660172932,-2792,-160,16048,-120,128,-86
660176514,-2940,-196,16004,-89,50,-53
660179873,-2916,-164,16112,-80,181,-70
660183342,-2756,-268,15996,-117,84,-59
660186813,-2736,-228,15992,-54,126,-37
660190283,-2712,-208,16068,-105,145,-62
660193839,-2732,-272,15836,-77,71,-68
660197223,-2796,-248,16108,-70,175,-33
660200716,-2852,-296,15996,-88,68,-95
660204076,-2696,-184,15996,-74,168,-62
660207546,-2824,-236,16116,-103,49,-65
660211016,-2772,-228,15828,-66,131,-39
660214486,-2696,-188,16120,-114,131,-65
660218043,-2904,-288,15956,-96,66,-83
660221429,-2748,-220,15984,-82,169,-66
660224939,-2812,-76,16012,-113,44,-78
660228279,-2868,-316,15928,-43,145,-52
660231749,-2856,-196,16024,-123,86,-35
660235219,-2716,-176,15804,-87,61,-52
660238602,-2808,-228,16080,-113,125,-55
660242159,-2996,-220,16052,-100,66,-74
660245629,-2848,-236,15952,-99,158,-43
660249147,-2736,-216,16088,-86,85,-36
660252482,-2912,-312,16012,-83,126,-71
660255952,-2820,-168,16280,-114,142,-64
660259509,-2860,-280,15944,-83,90,-53
660262892,-2844,-296,16116,-104,181,-91
660266449,-2696,-160,16128,-65,38,-68
660269832,-2768,-216,16084,-61,145,-56
660273302,-2788,-184,16008,-102,65,-92
660276797,-2888,-248,16044,-64,154,-66
660280242,-2796,-292,16120,-105,105,-87
660283799,-2840,-212,16052,-105,61,-52
660287269,-2756,-212,15948,-88,145,-74
660290739,-2700,-216,16004,-86,54,-71
660294122,-2748,-228,16020,-73,152,-71
660297592,-2812,-236,15952,-97,63,-79
660301000,-2720,-212,15980,-70,138,-65
660304446,-2736,-240,15856,-85,54,-60
660307829,-2760,-172,16012,-79,79,-69
660311212,-2800,-184,16060,-111,111,-66
660314769,-2812,-288,15988,-90,46,-50
660318152,-2800,-264,15992,-84,187,-52
660321622,-2844,-296,16036,-78,35,-105
660325134,-2716,-172,15848,-53,140,-68
660328562,-2880,-252,15988,-101,57,-51
660332032,-2788,-248,16040,-59,119,-72
660335502,-2824,-364,16048,-105,85,-76
660338972,-2812,-152,16068,-107,64,-44
660342442,-2752,-308,15904,-84,161,-82
660345912,-2828,-200,16020,-109,53,-75
660349430,-2820,-268,15956,-66,154,-61
660352852,-2824,-308,16020,-110,91,-82
660356322,-2760,-204,15980,-61,109,-51
660359792,-2764,-236,16084,-116,184,-72
660363349,-2844,-224,16008,-81,64,-34
660366732,-2784,-256,15980,-47,175,-64
660370202,-2772,-208,16116,-107,57,-79
660373675,-2788,-204,15928,-61,113,-50
660377167,-2828,-156,15900,-134,101,-83
660380699,-2936,-220,15984,-71,71,-58
660384082,-2804,-200,15992,-126,181,-59
660387639,-2852,-224,16036,-78,55,-72
660391022,-2780,-228,16008,-74,181,-79
660394492,-2736,-268,16112,-86,42,-70
660397875,-2804,-100,15960,-89,167,-51
660401370,-2788,-204,16012,-118,94,-90
660404815,-2768,-292,15960,-93,90,-45
660408199,-2892,-176,15916,-113,117,-67
660411755,-2800,-212,16084,-68,49,-91
660415138,-2772,-256,15972,-81,168,-76
660418609,-2868,-272,15828,-102,71,-48
660422079,-2848,-240,16036,-75,161,-54
660425590,-2852,-124,16004,-89,79,-69
660428932,-2852,-292,15952,-74,125,-44
660432402,-2836,-264,16000,-107,138,-77
660435958,-2812,-188,15916,-82,63,-68
660439342,-2876,-220,15924,-88,185,-59
660442812,-2856,-252,15948,-77,42,-72
660446195,-2904,-204,15928,-76,140,-57
660449713,-2776,-176,15948,-116,81,-71
660453135,-2920,-224,16100,-66,94,-34
660456518,-2912,-168,16044,-106,123,-36
660460075,-2780,-120,15952,-72,91,-64
660463458,-2820,-232,15984,-100,170,-70
660467015,-2752,-156,15988,-78,32,-63
660470398,-2744,-216,15912,-75,162,-73
660473893,-2804,-228,15956,-99,49,-48
660477252,-2776,-232,16012,-61,135,-67
660480721,-2880,-220,15944,-111,89,-85
660484191,-2792,-200,16000,-75,59,-59
660487575,-2848,-236,16052,-121,141,-94
660491132,-2924,-176,15972,-69,85,-62
660494515,-2820,-236,15964,-98,166,-33
660497985,-2880,-276,16012,-113,60,-91
660501479,-2876,-252,15932,-45,164,-60
660504925,-2820,-204,15952,-144,124,-66
660508482,-2812,-172,16172,-70,91,-66
660511865,-2836,-164,16028,-123,126,-52
660515421,-2808,-216,15944,-89,56,-42
660518805,-2892,-156,15956,-104,200,-79
660522362,-2860,-192,16028,-110,70,-52
660525873,-2816,-212,16048,-71,84,-59
660529215,-2912,-188,16012,-102,179,-67
660532771,-2888,-200,15912,-70,72,-69
660536155,-2900,-228,15896,-86,177,-90
660539625,-2792,-164,15844,-88,43,-57
660543008,-2848,-284,15936,-63,102,-57
660546478,-2920,-224,15868,-120,109,-58
660550095,-2828,-220,16104,-83,80,-44
660553418,-2848,-244,15932,-119,168,-68
660556975,-2732,-152,16060,-114,75,-41
660560445,-2760,-256,15904,-80,158,-67
660563915,-2764,-200,15956,-118,103,-89
660567472,-2944,-252,16012,-65,100,-33
660570942,-2884,-200,15940,-130,164,-81
660574523,-2716,-184,16104,-70,60,-38
660577882,-2872,-180,15936,-77,171,-60
660581351,-2804,-220,15848,-85,35,-59
660584735,-2804,-228,15992,-61,122,-57
660588205,-2776,-268,15900,-84,57,-87
660591588,-2788,-164,16140,-44,99,-25
660594971,-2816,-208,16124,-129,108,-92
660598531,-2860,-108,16076,-46,131,-37
660602022,-2816,-164,15872,-103,157,-53
660605555,-2716,-260,15888,-85,40,-67
660608938,-2732,-260,16028,-88,156,-53
660612408,-2792,-156,15932,-101,64,-56
660615878,-2752,-232,16036,-55,114,-42
660619348,-2756,-168,16000,-128,124,-105
660622991,-2772,-232,15964,-71,73,-76
660626417,-2704,-252,16152,-117,191,-60
660629931,-2868,-176,16032,-99,48,-79
660633315,-2824,-184,15996,-60,140,-31
660636785,-2752,-300,15900,-110,139,-65
660640342,-2748,-268,16068,-52,101,-58
660643811,-2756,-240,15992,-87,167,-62
660647282,-2776,-256,15960,-87,50,-75
660650713,-2812,-240,16000,-81,141,-30
660654135,-2840,-208,16056,-100,63,-68
660657605,-2880,-192,15996,-76,105,-48
660661075,-2756,-180,15884,-123,91,-69
660664545,-2752,-312,16056,-89,70,-43
660667928,-2880,-200,16076,-106,161,-99
660671485,-2904,-136,15852,-109,46,-47
660674979,-2812,-184,15968,-80,148,-51
660678425,-2836,-268,15996,-118,99,-72
660681895,-2708,-188,16000,-77,109,-69
660685365,-2812,-240,16064,-122,174,-61
660688922,-2840,-240,16016,-85,79,-76
660692305,-2736,-216,16044,-75,168,-62
660695775,-2820,-204,16092,-104,70,-30
660699269,-2844,-256,15992,-68,133,-55
660702715,-2780,-284,16048,-98,53,-76
660706098,-2712,-124,15948,-74,142,-64
660709568,-2788,-184,16020,-120,118,-55
660713125,-2812,-200,15928,-75,68,-79
660716508,-2740,-188,16092,-66,160,-66
660719978,-2800,-128,15892,-91,51,-51
660723365,-2856,-128,16032,-60,109,-62
660726874,-2900,-252,15944,-103,50,-62
660730301,-2908,-188,16052,-101,36,-35
660733771,-2808,-104,15912,-106,159,-59
660737328,-2868,-228,16128,-92,37,-71
660740711,-2828,-244,15988,-73,175,-42
660744181,-2868,-188,16016,-120,126,-50
660747738,-2672,-248,15976,-54,152,-48
660751256,-2768,-180,15972,-124,143,-64
660754765,-2784,-204,15988,-77,59,-54
660758148,-2788,-232,15980,-77,182,-78
660761618,-2780,-252,15928,-95,45,-62
660765001,-2856,-192,15912,-66,137,-66
660768471,-2772,-224,16060,-130,62,-79
660771941,-2748,-288,15956,-74,68,-90
660775349,-2792,-244,16004,-109,152,-73
660778881,-2836,-172,15992,-98,54,-59
660782264,-2740,-216,15916,-85,181,-43
660785735,-2848,-244,16028,-83,74,-88
660789118,-2812,-252,16076,-52,138,-48
660792588,-2880,-228,16024,-101,32,-74
660796058,-2772,-204,16004,-75,110,-48
660799552,-2940,-104,15972,-117,94,-49
660802998,-2880,-280,16140,-87,61,-71
660806381,-2940,-236,15980,-107,170,-59
660809938,-2812,-276,16036,-99,66,-78
660813321,-2764,-152,15964,-47,163,-72
660816791,-2888,-216,15904,-118,102,-85
660820348,-2796,-184,15888,-80,96,-71
660823734,-2832,-228,16012,-118,145,-42
660827330,-2876,-272,16072,-65,85,-79
660830671,-2860,-260,15892,-76,196,-36
660834141,-2700,-240,16016,-94,57,-41
660837524,-2800,-280,15872,-70,170,-67
660840994,-2796,-268,15992,-120,107,-30
660844551,-2888,-236,16056,-72,94,-65
660847934,-2832,-148,16060,-124,183,-58
660851539,-2780,-212,15944,-57,58,-86
660854874,-2736,-240,16040,-87,183,-54
660858344,-2836,-292,16000,-97,48,-67
660861728,-2884,-260,15980,-57,135,-58
660865198,-2792,-256,16048,-104,79,-69
660868668,-2816,-248,16060,-65,108,-27
660872137,-2848,-176,15900,-112,95,-91
660875632,-2772,-248,16024,-70,78,-45
660878991,-2724,-212,15968,-119,172,-78
660882547,-2720,-192,16140,-98,46,-53
660885931,-2844,-204,15860,-66,157,-51
660889401,-2740,-228,15968,-104,50,-75
660892876,-2816,-144,15992,-72,124,-52
660896341,-2840,-252,15944,-113,61,-63
660899835,-2800,-328,16024,-76,91,-70
660903194,-2668,-208,15908,-100,150,-55
660906751,-2852,-180,16060,-111,61,-46
660910221,-2740,-236,15804,-70,169,-44
660913691,-2748,-216,15952,-98,77,-83
660917074,-2768,-156,16044,-62,130,-63
660920544,-2764,-168,15932,-109,150,-63
660924124,-2752,-200,15932,-68,83,-86
660927519,-2832,-224,16044,-99,176,-85
660930954,-2760,-332,16012,-98,57,-41
660934337,-2896,-176,15980,-61,115,-77
660937807,-2848,-248,16136,-110,75,-79
660941277,-2844,-160,15924,-86,97,-55
660944661,-2744,-264,15968,-105,101,-90
660948217,-2828,-252,15988,-84,58,-59
660951650,-2768,-228,16040,-108,166,-61
660955157,-2732,-252,16120,-106,44,-62
660958627,-2844,-284,16044,-73,185,-84
660962097,-2792,-260,15928,-110,91,-64
660965567,-2860,-220,16048,-67,135,-29
660969037,-2788,-192,15980,-102,92,-89
660972507,-2888,-304,16008,-64,58,-56
660975915,-2892,-268,15904,-114,114,-84
660979447,-2768,-252,15896,-84,45,-89
660982831,-2856,-220,15976,-88,174,-80
660986301,-2868,-200,16100,-114,54,-74
660989771,-2728,-176,16052,-46,166,-47
660993241,-2892,-288,15968,-119,148,-37
660996797,-2804,-296,15976,-60,106,-66
661000292,-2828,-272,15916,-90,175,-47
661003737,-2716,-176,16028,-110,58,-55
661007207,-2840,-276,15972,-83,158,-51
661010677,-2780,-244,15896,-87,37,-30
661014060,-2812,-216,15848,-81,118,-45
661017531,-2808,-216,15972,-100,84,-60
661021000,-2728,-200,15960,-57,82,-69
661024407,-2848,-112,15964,-105,159,-94
661027976,-2784,-256,16052,-97,71,-59
661031324,-2836,-264,16076,-94,195,-61
661034794,-2796,-220,16044,-112,84,-67
661038264,-2716,-172,16044,-76,161,-62
661041734,-2760,-200,16036,-105,66,-79
661045204,-2792,-204,15996,-75,95,-49
661048590,-2852,-168,16112,-97,126,-61
661052159,-2880,-312,15972,-91,40,-75
661055440,-2740,-228,16000,-102,150,-71
661058997,-2748,-256,15944,-93,39,-58
661062380,-2752,-184,16012,-65,177,-71
661065850,-2792,-232,16008,-116,77,-68
661069320,-2760,-212,16268,-58,129,-66
661072790,-2828,-164,16108,-141,139,-53
661076371,-2828,-332,16000,-63,76,-35
661079730,-2772,-268,15924,-92,190,-46
661083200,-2816,-204,15968,-85,31,-69
661086584,-2812,-332,15980,-65,140,-75
661090054,-2904,-204,15840,-105,54,-81
661093523,-2824,-192,15984,-62,132,-46
661096994,-2824,-204,15808,-118,126,-67
661100575,-2696,-268,16052,-96,52,-54
661103934,-2768,-160,15924,-95,209,-50
661107403,-2844,-312,15896,-75,36,-73
661110787,-2776,-108,16044,-68,155,-51
661114257,-2804,-272,16064,-121,41,-80
661117727,-2828,-188,16020,-65,95,-59
661121110,-2860,-236,15920,-113,119,-57
661124690,-2852,-280,15968,-72,66,-80
661128089,-2804,-256,16028,-91,169,-99
661131520,-2876,-224,15904,-104,70,-66
661134990,-2764,-284,16104,-64,161,-42
661138460,-2828,-240,16040,-131,89,-82
661141930,-2768,-224,16140,-86,127,-24
661145400,-2812,-204,15948,-110,167,-76
661149005,-2880,-156,16168,-83,75,-73
661152340,-2764,-272,16080,-66,166,-58
661155810,-2748,-296,15960,-88,58,-79
661159193,-2744,-216,16252,-81,172,-49
661162663,-2848,-320,16008,-108,60,-80
661166133,-2844,-224,15952,-51,118,-70
661169603,-2852,-228,16072,-102,148,-76
661173160,-2872,-196,16028,-76,68,-54
661176568,-2816,-220,15848,-70,157,-60
661180013,-2688,-172,16048,-104,50,-54
661183483,-2860,-276,15940,-54,130,-68
661186953,-2872,-236,16048,-126,76,-44
661190423,-2768,-180,15788,-81,62,-76
661193806,-2844,-256,15940,-106,163,-25
661197363,-2784,-176,16012,-84,47,-49
661200771,-2912,-192,15872,-97,203,-60
661204217,-2860,-332,15960,-111,58,-90
661207687,-2908,-120,16064,-56,164,-49
661211156,-2800,-216,15884,-114,124,-59
661214713,-2680,-244,15868,-61,105,-67
661218183,-2860,-200,16060,-106,165,-71
661221740,-2752,-216,15916,-85,58,-75
661225147,-2776,-244,15880,-73,165,-33
661228628,-2824,-260,16000,-106,43,-77
661232063,-2836,-328,15944,-69,114,-63
661235533,-2812,-308,15988,-110,103,-82
661239090,-2880,-96,15936,-69,46,-69
661242387,-2912,-256,15912,-115,201,-50
661245943,-2816,-268,15972,-104,59,-58
661249462,-2884,-252,16060,-104,154,-70
661252970,-2792,-264,15904,-100,97,-91
661256440,-2888,-288,15976,-74,115,-56
661259910,-2820,-244,15992,-120,161,-79
661263467,-2888,-108,16068,-86,66,-86
661266850,-2708,-232,16164,-131,144,-30
661270407,-2848,-152,15916,-91,63,-46
661273815,-2764,-120,15904,-94,169,-67
661277260,-2756,-200,15976,-109,68,-64
661280730,-2868,-196,16052,-56,135,-54
661284200,-2792,-212,16064,-110,127,-91
661287757,-2824,-204,15984,-78,102,-31
661291227,-2796,-168,15968,-96,175,-88
661294697,-2788,-232,15988,-96,66,-62
661298080,-2696,-264,16068,-69,182,-43
661301575,-2840,-244,15908,-95,50,-92
661304933,-2832,-92,16016,-65,113,-40
661308316,-2716,-144,15912,-103,111,-74
661311873,-2784,-236,16048,-72,77,-62
661315256,-2780,-260,15940,-112,172,-61
661318813,-2864,-168,15952,-99,57,-74
661322196,-2708,-296,15968,-64,171,-37
661325690,-2772,-304,16120,-110,80,-39
661329171,-2828,-272,15980,-52,119,-42
661332607,-2904,-284,16044,-117,156,-65
661336163,-2888,-248,15900,-97,86,-73
661339546,-2768,-268,15992,-121,125,-64
661343103,-2796,-256,16056,-107,58,-22
661346573,-2704,-136,15912,-64,136,-60
661350092,-2756,-236,15924,-108,66,-49
661353513,-2816,-276,16076,-71,83,-65
661356896,-2864,-140,16032,-112,111,-82
661360453,-2860,-168,16156,-78,127,-81
661363923,-2920,-220,15964,-111,185,-60
661367480,-2764,-172,16052,-97,49,-62
661370863,-2752,-296,15916,-62,174,-72
661374358,-2852,-204,15940,-83,37,-22
661377717,-2836,-220,15916,-44,114,-45
661381187,-2792,-228,15988,-124,93,-95
661384656,-2860,-192,15928,-67,65,-49
661388040,-2856,-272,16088,-114,150,-78
661391596,-2848,-276,15932,-111,78,-45
661395067,-2840,-220,15936,-80,164,-42
661398540,-2796,-268,15916,-105,87,-89
661402031,-2760,-204,16004,-71,114,-58
661405476,-2856,-164,15904,-128,139,-72
661409033,-2848,-184,15972,-88,65,-92
661412417,-2856,-220,16012,-83,187,-59
661415887,-2808,-280,15844,-103,29,-81
661419357,-2760,-212,16024,-33,137,-36
661422826,-2772,-124,16076,-92,76,-52
661426233,-2852,-176,15988,-90,75,-50
661429628,-2812,-192,16048,-122,166,-72
661433150,-2840,-272,16044,-66,77,-65
661436533,-2896,-208,16140,-82,162,-50
661440003,-2816,-324,16036,-103,61,-64
661443473,-2672,-128,15940,-54,120,-52
661446943,-2856,-240,16116,-109,58,-54
661450462,-2868,-184,16024,-83,62,-51
661453796,-2820,-256,15960,-101,154,-73
661457353,-2884,-180,15872,-99,43,-53
661460736,-2828,-112,15840,-97,179,-47
661464206,-2820,-204,16040,-109,93,-65
661467676,-2812,-192,16032,-74,129,-68
661471146,-2848,-160,16096,-133,134,-53
661474727,-2732,-184,15996,-71,74,-59
661478086,-2856,-236,15928,-87,164,-35
661481556,-2756,-228,15928,-91,39,-57
661484940,-2828,-236,16132,-89,191,-56
661488410,-2812,-260,15932,-109,57,-49
661491879,-2752,-224,15924,-62,150,-65
661495349,-2792,-192,15816,-123,109,-76
661498931,-2812,-248,15996,-77,25,-61
661502290,-2952,-172,16076,-94,190,-58
661505759,-2816,-272,15948,-67,47,-50
661509143,-2792,-172,15884,-47,130,-71
661512613,-2908,-240,15856,-89,74,-80
661515996,-2876,-216,16012,-65,106,-47
661519466,-2824,-136,15936,-114,105,-72
661523023,-2812,-276,15948,-93,69,-54
661526429,-2832,-156,16004,-97,189,-41
661529911,-2788,-276,16044,-104,40,-58
661533346,-2684,-208,16012,-74,156,-59
661536816,-2788,-244,15996,-108,95,-79
661540286,-2844,-216,16068,-47,115,-67
661543756,-2808,-240,16012,-89,168,-81
661547226,-2944,-96,15932,-83,50,-80
661550583,-2908,-244,16032,-117,200,-53
661554079,-2864,-172,16008,-99,48,-42
661557463,-2768,-220,15948,-73,163,-41
661560933,-2780,-276,16012,-112,93,-74
661564403,-2776,-236,15960,-55,117,-35
661567872,-2764,-156,16036,-116,176,-85
661571429,-2864,-228,16036,-98,49,-78
661574837,-2788,-176,15952,-75,167,-65
661578282,-2884,-236,15980,-111,39,-46
661581752,-2784,-256,16012,-67,103,-53
661585222,-2840,-188,16024,-132,128,-66
661588779,-2788,-188,16016,-76,59,-39
661592162,-2832,-280,15892,-106,177,-53
661595719,-2936,-184,15828,-107,69,-68
661599214,-2776,-204,15848,-85,163,-45
661602659,-2672,-176,15928,-114,80,-69
661606129,-2712,-188,15920,-70,138,-53
661609599,-2716,-132,15980,-134,171,-62
661613156,-2680,-184,15912,-65,66,-63
661616539,-2808,-136,15984,-77,176,-63
661620009,-2820,-148,15932,-103,52,-72
661623483,-2812,-92,15992,-60,150,-77
661626886,-2756,-216,16044,-88,70,-58
661630281,-2888,-164,15964,-52,147,-70
661633716,-2752,-248,16036,-138,116,-66
661637272,-2796,-248,16064,-54,108,-59
661640743,-2852,-232,16020,-99,169,-90
661644212,-2844,-192,16112,-98,62,-58
661647596,-2756,-148,15992,-86,169,-53
661651114,-2856,-196,16144,-98,41,-71
661654449,-2868,-212,15984,-69,135,-50
661657919,-2840,-88,15976,-93,56,-91
661661216,-2812,-200,15996,-54,113,-53
661664686,-2856,-212,16164,-124,143,-25
661668242,-2872,-184,16072,-104,29,-78
661671712,-2884,-268,16056,-89,158,-75
661675207,-2708,-152,15976,-96,84,-69
661678565,-2808,-240,15932,-72,130,-59
661682035,-2776,-208,15952,-113,86,-50
661685505,-2904,-260,15920,-70,56,-76
661688889,-2792,-236,16100,-112,169,-44
661692445,-2776,-192,15916,-88,41,-96
661695829,-2768,-276,15908,-72,170,-53
661699323,-2736,-268,16004,-123,75,-51
661702769,-2840,-292,16028,-56,141,-47
661706239,-2844,-216,16076,-134,147,-79
661709795,-2800,-276,15892,-73,100,-52
661713266,-2892,-248,15956,-107,154,-44
661716822,-2844,-236,15924,-89,40,-91
661720205,-2668,-196,16056,-43,164,-53
661723679,-2828,-268,15992,-116,49,-51
661727169,-2852,-184,16008,-85,97,-18
661730564,-2792,-172,15972,-126,109,-83
661734085,-2816,-212,16036,-96,57,-59
661737469,-2852,-212,16124,-111,164,-67
661741026,-2744,-200,16108,-91,58,-71
661744409,-2756,-172,16104,-62,157,-49
661747879,-2828,-240,15920,-91,63,-43
661751310,-2768,-260,16064,-68,121,-47
661754732,-2848,-136,15964,-128,70,-62
661758202,-2816,-216,15928,-56,74,-63
661761585,-2860,-200,16088,-134,123,-71
661765142,-2732,-128,15916,-88,75,-53
661768525,-2732,-236,15968,-111,200,-45
661772082,-2836,-184,16092,-97,37,-86
661775490,-2816,-220,16040,-76,176,-52
661778935,-2804,-188,15936,-116,77,-59
661782405,-2748,-320,15892,-88,127,-76
661785875,-2900,-300,16024,-101,149,-67
661789432,-2788,-172,16024,-80,74,-57
661792815,-2796,-232,16112,-65,181,-63
661796285,-2800,-184,16000,-97,68,-55
661799693,-2824,-196,15904,-81,89,-72
661803052,-2816,-116,15872,-90,119,-70
661806522,-2784,-168,16032,-88,98,-48
661809905,-2956,-288,15912,-88,197,-73
661813375,-2740,-380,16060,-94,61,-73
661816758,-2848,-196,15936,-63,183,-49
661820228,-2860,-264,16128,-107,35,-49
661823702,-2852,-188,16072,-55,131,-46
661827192,-2824,-308,15884,-127,81,-50
661830673,-2776,-168,15988,-78,72,-59
661834021,-2848,-276,15980,-111,137,-67
661837578,-2816,-192,16080,-84,65,-58
661840962,-2888,-192,15908,-100,177,-46
661844518,-2868,-244,15992,-116,63,-63
661847988,-2856,-312,15992,-54,151,-67
661851507,-2780,-188,15924,-129,125,-56
661855015,-2748,-272,16012,-59,100,-70
661858485,-2848,-264,15928,-118,164,-49
661862042,-2848,-288,16076,-74,62,-47
661865425,-2860,-212,15844,-59,170,-57
661868895,-2932,-248,16016,-75,73,-55
661872278,-2812,-200,16188,-86,168,-59
661875773,-2816,-276,16104,-97,73,-57
661879132,-2892,-312,16112,-76,110,-63
661882602,-2792,-240,16104,-77,176,-80
661886071,-2824,-276,16052,-91,43,-76
661889455,-2772,-272,16012,-60,181,-65
661892925,-2772,-212,16036,-97,59,-80
661896308,-2780,-224,15892,-47,107,-75
661899802,-2700,-136,15964,-114,119,-60
661903335,-2824,-160,16036,-83,68,-65
661906718,-2888,-196,16040,-113,150,-84
661910275,-2744,-236,16044,-83,73,-63
661913658,-2796,-284,15992,-86,150,-59
661917128,-2760,-164,15924,-90,42,-83
661920511,-2840,-220,15984,-51,95,-56
661923918,-2888,-156,15960,-130,129,-100
661927538,-2764,-184,15904,-72,75,-25
661930956,-2828,-64,16060,-111,171,-54
661934391,-2792,-212,15824,-90,37,-65
661937775,-2896,-220,15912,-48,154,-56
661941245,-2748,-248,15996,-111,113,-78
661944801,-2752,-244,15928,-67,126,-58
661948275,-2844,-196,16016,-90,178,-94
661951791,-2912,-228,15996,-94,47,-63
661955125,-2832,-276,15932,-67,167,-42
661958595,-2840,-228,15944,-103,57,-85
661962065,-2792,-232,16048,-78,87,-35
661965448,-2812,-216,15984,-117,146,-58
661969005,-2856,-220,15884,-100,63,-57
661972475,-2832,-192,16040,-103,154,-56
661976056,-2824,-216,16016,-89,65,-40
661979414,-2888,-212,15932,-58,178,-49
661982885,-2792,-192,15936,-104,52,-97
661986354,-2844,-252,16056,-62,105,-36
661989825,-2804,-280,16004,-106,81,-87
661993295,-2824,-228,16008,-82,60,-83
661996678,-2824,-216,16144,-116,169,-63
662000259,-2896,-232,15960,-73,51,-66
662003618,-2880,-276,15968,-55,154,-36
662007088,-2800,-180,15996,-130,94,-78
662010558,-2756,-220,15976,-66,105,-43
662014028,-2832,-172,16056,-119,187,-83
662017585,-2748,-140,16072,-101,64,-58
662021054,-2884,-248,15972,-70,173,-62
662024548,-2880,-240,15992,-86,60,-42
662027908,-2812,-256,16052,-53,111,-66
662031413,-2808,-224,15896,-114,103,-85
662034934,-2856,-216,16080,-75,69,-63
662038318,-2800,-284,15920,-123,152,-85
662041874,-2776,-220,16032,-108,80,-38
662045344,-2780,-288,15968,-108,180,-55
662049004,-2744,-176,15780,-99,70,-77
662052285,-2828,-236,15936,-61,146,-41
662055754,-2792,-200,16088,-125,114,-42
662059311,-2796,-224,15988,-89,112,-64
662062781,-2868,-268,16096,-92,173,-64
662066251,-2764,-348,15896,-97,75,-75
662069634,-2876,-132,16028,-72,139,-35
662073104,-2848,-172,16140,-101,60,-53
662076599,-2768,-228,15908,-82,76,-40
662079958,-2780,-228,16080,-122,94,-73
662083428,-2816,-276,15976,-54,99,-80
662086811,-2808,-292,16068,-87,202,-56
662090281,-2808,-300,15968,-93,44,-57
662093664,-2868,-292,15948,-59,142,-17
662097134,-2728,-164,15904,-120,68,-60
662100629,-2924,-160,15948,-77,79,-22
662103987,-2788,-216,16000,-114,117,-91
662107544,-2752,-276,15932,-85,64,-67
662110927,-2812,-176,15968,-92,174,-65
662114398,-2836,-248,16024,-119,63,-73
662117868,-2708,-268,15828,-74,102,-68
662121337,-2940,-212,16032,-102,80,-100
662124917,-2812,-288,15952,-86,68,-46
662128277,-2776,-248,15936,-111,168,-82
662131873,-2868,-132,16056,-101,30,-77
662135304,-2824,-164,16052,-76,168,-48
662138774,-2848,-216,16020,-120,72,-60
662142244,-2800,-64,15920,-57,139,-43
662145628,-2820,-52,15992,-116,128,-72
662149146,-2836,-220,15952,-72,94,-77
662152481,-2828,-144,16032,-96,171,-86
662155951,-2916,-240,15968,-90,73,-63
662159334,-2804,-184,15944,-65,166,-58
662162804,-2732,-248,16024,-97,49,-102
662166274,-2820,-240,16076,-66,133,-52
662169744,-2780,-156,16056,-86,68,-87
662173127,-2820,-204,15872,-64,132,-48
662176622,-2732,-200,16108,-105,152,-73
662180154,-2712,-164,16036,-81,45,-79
662183537,-2808,-296,16108,-92,184,-68
662187007,-2792,-180,16032,-88,28,-67
662190391,-2800,-204,16048,-59,167,-48
662193860,-2748,-172,16064,-112,65,-66
662197331,-2828,-232,15972,-55,107,-51
662200825,-2708,-236,15912,-136,142,-78
662204357,-2732,-196,16092,-101,63,-64
662207827,-2820,-144,16076,-82,166,-49
662211297,-2864,-304,16124,-134,77,-49
662214767,-2688,-236,15924,-66,156,-50
662218237,-2944,-160,16144,-107,138,-57
662221794,-2780,-244,15932,-75,96,-65
662225200,-2780,-140,16048,-103,184,-72
662228734,-2872,-212,15936,-81,34,-59
662232152,-2784,-188,16144,-60,163,-76
662235587,-2752,-204,16016,-109,53,-58
662239057,-2744,-240,15984,-73,67,-73
662242441,-2748,-280,16000,-118,180,-79
662245997,-2788,-188,16084,-90,62,-43
662249429,-2840,-296,15964,-86,166,-48
662252851,-2928,-308,16116,-137,102,-72
662256407,-2896,-160,15956,-60,103,-60
662259877,-2836,-112,15884,-95,157,-63
662263347,-2852,-140,15976,-81,60,-64
662266730,-2868,-160,16024,-116,156,-69
662270287,-2900,-204,16080,-104,57,-75
662273782,-2784,-272,15992,-74,74,-56
662277140,-2788,-196,15916,-99,145,-55
662280610,-2728,-176,15940,-103,88,-47
662284081,-2824,-204,15948,-53,163,-66
662287550,-2752,-176,16052,-94,48,-64
662290934,-2848,-80,15896,-66,106,-60
662294317,-2724,-192,15900,-114,65,-85
662297787,-2892,-196,15992,-78,57,-53
662301195,-2820,-364,15904,-132,135,-69
662304727,-2780,-252,15908,-88,59,-75
662308110,-2840,-196,15928,-53,199,-86
662311580,-2800,-236,15912,-96,65,-44
662314964,-2864,-256,16116,-47,167,-75
662318433,-2856,-260,15964,-123,71,-54
662321903,-2776,-260,16048,-59,82,-87
662325310,-2864,-296,15904,-122,108,-61
662328843,-2780,-144,15988,-89,62,-49
662332262,-2904,-300,15940,-63,199,-71
662335697,-2804,-292,15944,-115,74,-55
662339167,-2740,-208,15872,-74,152,-54
662342637,-2860,-156,16056,-127,114,-52
662346193,-2788,-156,15960,-65,107,-51
662349712,-2812,-324,16016,-94,174,-57
662353133,-2836,-152,15948,-85,58,-84
662356517,-2760,-272,16120,-57,168,-25
662359987,-2784,-168,16032,-104,39,-40
662363457,-2800,-240,15944,-57,117,-62
662366927,-2804,-252,15876,-107,78,-68
662370397,-2884,-216,15988,-67,61,-57
662373804,-2836,-176,16088,-130,123,-103
662377424,-2672,-244,16016,-81,38,-63
662380807,-2780,-160,15972,-115,165,-79
662384363,-2852,-96,16036,-103,50,-64
662387747,-2704,-204,15936,-48,150,-27
662391217,-2836,-236,16000,-97,82,-73
662394600,-2928,-108,15956,-67,110,-50
662398070,-2840,-212,15956,-143,124,-91
662401651,-2796,-232,16020,-75,64,-70
662405010,-2804,-112,16124,-65,121,-80
662408480,-2936,-248,16044,-106,137,-48
662412037,-2816,-300,16000,-70,62,-65
662415420,-2860,-188,16048,-86,176,-72
662418890,-2828,-172,16100,-93,70,-55
662422273,-2864,-168,15944,-34,157,-39
662425767,-2824,-192,15968,-99,83,-72
662429127,-2780,-208,15892,-58,158,-33
662432631,-2800,-228,16040,-107,115,-52
662436153,-2860,-200,16144,-84,68,-69
662439537,-2848,-188,15872,-110,180,-39
662443093,-2800,-308,15892,-100,106,-103
662446737,-2788,-192,16164,-69,126,-38
662450255,-2804,-220,16048,-112,175,-62
662453763,-2764,-256,16048,-86,65,-48
662457147,-2848,-176,15980,-72,169,-86
662460617,-2852,-216,16076,-113,53,-55
662464087,-2848,-220,15984,-72,130,-50
662467557,-2812,-152,15956,-114,89,-78
662471027,-2780,-172,16016,-103,64,-64
662474521,-2884,-264,15960,-114,167,-55
662478053,-2784,-208,16092,-72,53,-74
662481437,-2736,-260,15972,-65,164,-80
662484907,-2788,-156,15824,-105,66,-62
662488377,-2900,-296,16080,-43,112,-51
662491847,-2832,-272,15892,-119,78,-64
662495321,-2892,-244,16008,-98,62,-88
662498724,-2776,-200,15888,-106,164,-68
662502257,-2760,-240,15804,-75,43,-84
662505640,-2876,-156,16052,-130,163,-55
662509197,-2808,-232,15824,-122,60,-65
662512667,-2732,-212,15960,-59,141,-61
662516137,-2768,-232,15972,-114,137,-85
662519694,-2764,-176,16016,-48,76,-66
662523077,-2732,-188,16020,-102,194,-30
662526657,-2828,-156,15992,-72,50,-79
662530017,-2788,-224,15980,-68,159,-52
662533522,-2856,-276,15896,-107,52,-55
662536957,-2756,-260,15876,-73,113,-83
662540427,-2840,-268,15904,-121,139,-48
662543984,-2820,-184,16064,-90,44,-50
662547367,-2760,-196,16012,-96,184,-57
662550897,-2764,-220,16080,-116,44,-44
662554307,-2772,-252,15936,-84,163,-37
662557777,-2836,-144,16048,-116,76,-60
662561247,-2824,-288,16176,-64,125,-58
662564717,-2836,-208,16000,-121,151,-63
662568274,-2800,-212,16056,-69,91,-55
662571657,-2812,-232,16008,-84,159,-54
662575151,-2824,-324,15952,-81,66,-64
662578510,-2872,-188,16016,-81,170,-66
662581980,-2824,-200,15952,-111,79,-66
662585450,-2736,-212,16016,-48,152,-59
662588920,-2800,-172,16008,-116,161,-49
662592477,-2792,-232,15936,-63,98,-70
662595860,-2792,-236,16060,-111,153,-67
662599441,-2824,-116,15784,-69,41,-72
662602800,-2796,-224,16084,-65,183,-38
662606270,-2724,-196,16044,-94,45,-46
662609653,-2680,-188,15952,-71,106,-94
662613123,-2820,-188,16000,-95,87,-60
662616507,-2848,-216,15924,-103,74,-58
662619976,-2868,-284,15860,-118,129,-70
662623537,-2860,-148,15952,-89,75,-61
662626940,-2804,-228,15888,-80,185,-54
662630386,-2728,-220,15964,-121,51,-65
662633891,-2784,-208,16004,-50,156,-26
662637326,-2828,-208,15968,-110,133,-73
662640883,-2856,-256,15976,-62,95,-44
662644267,-2912,-236,16004,-123,112,-68
662647823,-2732,-280,15888,-98,59,-78
662651255,-2784,-240,15828,-92,168,-89
662654677,-2848,-224,15960,-114,60,-55
662658147,-2836,-252,15888,-57,145,-34
662661616,-2896,-304,16012,-98,119,-61
662665087,-2716,-232,16000,-89,90,-50
662668470,-2740,-284,16104,-90,170,-101
662672027,-2800,-200,15996,-96,66,-41
662675434,-2720,-328,16072,-66,153,-65
662678880,-2820,-324,15948,-91,49,-42
662682263,-2688,-228,15908,-57,97,-78
662685646,-2768,-268,16056,-138,104,-76
662689203,-2772,-272,16076,-57,58,-55
662692586,-2848,-248,15984,-114,162,-48
662696143,-2852,-188,15988,-97,38,-57
662699551,-2876,-280,15944,-53,160,-77
662702996,-2816,-232,15912,-98,63,-43
662706379,-2740,-188,16016,-43,99,-65
662709763,-2820,-216,16020,-122,85,-58
662713233,-2712,-148,15988,-64,69,-65
662716616,-2784,-204,16032,-129,147,-81
662720173,-2840,-288,15956,-95,36,-87
662723559,-2876,-208,16020,-84,173,-61
662727049,-2828,-108,15972,-94,39,-73
662730409,-2824,-236,15928,-68,171,-35
662733918,-2808,-156,16080,-114,67,-54
662737349,-2828,-340,16008,-74,93,-57
662740733,-2884,-240,15924,-115,153,-66
662744289,-2808,-220,16044,-108,69,-78
662747759,-2860,-224,16116,-89,183,-53
662751278,-2820,-232,16024,-123,52,-72
662754699,-2820,-304,16036,-59,141,-48
662758169,-2864,-220,15992,-113,129,-69
662761726,-2712,-240,15912,-84,111,-45
662765196,-2848,-120,15904,-108,171,-68
662768753,-2836,-312,16108,-86,76,-54
662772136,-2912,-216,15872,-63,152,-73
662775630,-2704,-292,15892,-100,62,-65
662779076,-2904,-216,15956,-45,98,-73
662782459,-2808,-164,16008,-125,91,-41
662785929,-2848,-236,15924,-74,66,-53
662789313,-2848,-244,16136,-97,138,-61
662792782,-2820,-188,15872,-81,45,-64
662796166,-2896,-300,15960,-88,181,-42
662799660,-2736,-240,16124,-100,53,-66
662803106,-2792,-188,15988,-61,162,-35
662806576,-2784,-284,16028,-97,38,-84
662809959,-2772,-224,15992,-66,131,-48
662813429,-2868,-144,15856,-123,86,-83
662816899,-2804,-244,15900,-71,61,-57
662820282,-2868,-204,16076,-129,165,-83
662823862,-2792,-228,15964,-110,51,-70
662827309,-2824,-264,16016,-45,166,-62
662830779,-2752,-292,16084,-109,96,-77
662834284,-2856,-212,16092,-64,118,-59
662837719,-2888,-220,15932,-111,141,-72
662841276,-2716,-192,16028,-87,78,-26
662844659,-2760,-276,15888,-60,187,-45
662848129,-2828,-244,15920,-101,54,-61
662851647,-2860,-200,15960,-42,122,-52
662855069,-2836,-196,15968,-132,65,-72
662858539,-2824,-244,16088,-61,84,-62
662861922,-2748,-124,15880,-117,157,-94
662865479,-2956,-240,16028,-86,53,-54
662868862,-2780,-212,15920,-91,184,-57
662872332,-2812,-312,16080,-85,57,-87
662875740,-2840,-288,16056,-58,137,-49
662879186,-2824,-168,16036,-128,80,-57
662882655,-2716,-228,15988,-72,89,-58
662886039,-2688,-312,15968,-134,132,-90
662889595,-2788,-164,16024,-114,62,-87
662893065,-2852,-192,15972,-75,133,-71
662896535,-2760,-276,16144,-106,67,-64
662900030,-2928,-200,15956,-59,150,-60
662903475,-2796,-264,15928,-120,97,-64
662906945,-2724,-288,15796,-71,84,-48
662910329,-2808,-160,16004,-95,170,-54
662913799,-2752,-216,15980,-78,74,-35
662917182,-2800,-312,16032,-79,162,-72
662920652,-2856,-212,16060,-102,46,-78
662924145,-2876,-240,15924,-47,96,-41
662927505,-2936,-152,16080,-122,84,-84
662930975,-2736,-164,15976,-57,128,-54
662934480,-2856,-248,16032,-104,144,-76
662938002,-2852,-224,15980,-72,81,-91
662941385,-2936,-224,15880,-70,179,-94
662944855,-2868,-196,15936,-90,45,-67
662948242,-2828,-164,16112,-68,178,-47
662951758,-2840,-236,15996,-110,51,-86
662955178,-2660,-188,15936,-73,107,-54
662958648,-2888,-208,15972,-134,134,-68
662962205,-2836,-164,15936,-113,32,-72
662965675,-2736,-152,16072,-103,171,-101
662969319,-2840,-384,15928,-112,54,-57
662972789,-2820,-308,15956,-62,150,-65
662976283,-2932,-144,16040,-123,103,-55
662979816,-2848,-220,15880,-59,90,-55
662983199,-2864,-164,15988,-72,188,-78
662986669,-2772,-196,16036,-86,70,-71
662990052,-2764,-216,15968,-60,191,-46
