Time,Accel_X,Accel_Y,Accel_Z,Gyro_X,Gyro_Y,Gyro_Z
486461311,-2888,-248,15804,-99,67,-60
486464646,-2716,-232,15928,-89,166,-70
486468116,-2736,-292,15984,-102,59,-37
486471586,-2880,-252,15928,-65,165,-57
486475056,-2868,-212,15976,-100,43,-78
486478526,-2880,-272,16056,-76,81,-28
486481909,-2864,-252,15980,-108,99,-71
486485402,-2740,-244,16096,-85,55,-53
486488762,-2804,-248,16112,-119,155,-47
486492324,-2764,-180,15992,-100,42,-58
486495824,-2792,-264,16008,-64,143,-41
486499259,-2812,-264,16080,-129,91,-81
486502729,-2808,-172,15984,-61,110,-46
486506199,-2776,-84,15976,-125,141,-49
486509672,-2768,-212,15860,-51,80,-32
486513077,-2748,-244,15940,-120,158,-65
486516609,-2768,-324,15936,-99,51,-60
486519992,-2828,-244,16104,-74,157,-23
486523462,-2844,-216,15988,-111,77,-70
486526932,-2796,-192,15988,-65,143,-48
486530402,-2820,-128,16036,-132,124,-52
486533959,-2724,-152,15912,-80,83,-62
486537367,-2836,-164,16088,-95,196,-83
486540812,-2728,-240,15960,-92,62,-46
486544196,-2780,-312,16036,-48,162,-69
486547666,-2768,-216,16020,-105,24,-49
486551136,-2812,-204,16132,-72,89,-50
486554519,-2752,-200,15948,-113,137,-74
486558076,-2720,-224,15968,-103,38,-115
486561693,-2696,-220,15916,-98,193,-48
486565102,-2756,-232,15952,-124,71,-64
486568572,-2884,-248,16064,-56,159,-65
486572042,-2780,-176,16068,-127,106,-55
486575599,-2812,-156,16048,-59,79,-80
486578982,-2868,-300,15932,-109,185,-53
486582539,-2768,-212,16116,-96,79,-52
486585946,-2744,-164,16020,-64,164,-46
486589392,-2792,-220,16008,-107,66,-61
486592862,-2744,-272,15884,-59,119,-54
486596367,-2748,-176,16036,-102,68,-82
486599802,-2764,-148,15976,-75,61,-75
486603185,-2920,-272,15972,-89,161,-54
486606656,-2692,-208,15980,-71,36,-59
486610063,-2792,-232,16000,-66,167,-74
486613509,-2772,-288,15956,-90,64,-44
486616892,-2752,-200,15972,-61,138,-64
486620362,-2816,-204,15988,-118,94,-38
486623832,-2764,-328,16096,-76,92,-29
486627215,-2812,-200,16036,-96,147,-77
486630685,-2824,-164,15848,-94,45,-56
486634069,-2916,-272,15996,-77,174,-32
486637563,-2800,-192,15948,-84,25,-59
486640922,-2812,-132,15904,-85,150,-74
486644392,-2776,-168,16136,-115,76,-94
486647862,-2776,-156,16004,-43,71,-33
486651245,-2828,-220,16008,-123,126,-75
486654802,-2844,-204,16076,-106,49,-73
486658272,-2824,-304,15896,-85,177,-41
486661790,-2788,-224,15960,-111,64,-68
486665212,-2832,-228,16028,-58,138,-43
486668682,-2828,-192,16048,-91,125,-73
486672152,-2856,-124,15876,-99,85,-58
486675535,-2824,-196,15988,-113,178,-42
486679092,-2772,-144,15868,-75,46,-73
486682475,-2884,-248,15816,-60,145,-56
486685968,-2912,-204,15972,-93,71,-96
486689328,-2852,-184,16048,-60,170,-41
486692798,-2788,-172,16028,-95,101,-91
486696272,-2876,-136,15884,-74,121,-54
486699773,-2756,-220,16052,-106,152,-80
486703295,-2828,-228,16044,-99,51,-47
486706678,-2824,-232,16028,-60,181,-79
486710173,-2800,-260,15988,-98,65,-71
486713531,-2928,-240,15852,-72,143,-60
486717001,-2848,-272,16116,-99,74,-56
486720385,-2872,-200,16008,-64,87,-69
486723768,-2848,-264,16048,-110,153,-46
486727325,-2820,-212,16064,-102,48,-85
486730795,-2804,-276,16060,-103,193,-49
486734352,-2812,-208,16004,-100,55,-62
486737846,-2792,-200,15908,-67,135,-48
486741291,-2764,-352,16052,-77,144,-108
486744848,-2668,-76,15936,-54,74,-34
486748145,-2924,-228,15968,-122,142,-111
486751788,-2956,-136,15924,-63,58,-79
486755172,-2784,-192,15824,-77,166,-65
486758642,-2768,-172,15952,-70,45,-59
486762073,-2832,-212,15920,-76,163,-69
486765495,-2872,-216,15948,-108,99,-26
486768965,-2924,-216,16152,-94,135,-88
486772435,-2784,-288,15952,-95,133,-48
486775905,-2736,-252,15948,-97,88,-102
486779375,-2796,-236,15864,-51,155,-36
486782845,-2644,-240,16032,-121,79,-104
486786425,-2792,-136,15876,-88,78,26
486789698,-2964,-188,16068,-118,124,-158
486793342,-2752,-232,16000,-37,66,-50
486796725,-2728,-432,16084,-157,181,-102
486800403,-2608,-296,16004,-90,20,8
486803578,-2788,-172,15880,-123,204,-95
486807135,-2872,-108,15892,-119,36,-35
486810629,-2924,-100,15816,-52,162,-82
486814075,-2828,-240,16052,-102,121,-69
486817631,-2756,-168,15916,-74,97,-79
486821015,-2820,-296,16240,-59,159,-41
486824485,-2720,-272,15912,-82,50,-72
486827868,-2932,-204,16072,-63,137,-45
486831338,-2732,-324,15896,-106,57,-69
486834811,-2896,-216,16076,-65,92,-47
486838216,-2808,-184,15772,-105,83,-80
486841661,-2724,-164,16072,-80,128,-69
486845131,-2828,-128,15840,-126,126,-35
486848688,-2804,-204,16036,-103,101,-97
486852245,-2752,-220,15732,-81,124,-17
486855715,-2796,-224,15936,-113,89,-101
486859271,-2864,-156,15860,-32,101,-7
486862703,-2840,-216,16012,-148,123,-95
486866212,-2748,-268,15884,-65,67,-18
486869595,-2844,-232,16108,-151,195,-124
486873238,-2664,-152,15944,-70,39,-28
486876622,-2812,-192,15956,-82,148,-55
486880091,-2808,-216,16032,-59,55,-53
486883475,-2744,-212,15992,-71,150,-75
486886968,-2876,-232,16072,-128,111,-45
486890501,-2808,-252,15916,-94,106,-65
486893972,-2820,-248,15960,-100,165,-48
486897528,-2904,-308,15972,-100,74,-79
486901033,-2716,-248,15968,-69,164,-39
486904468,-2764,-220,16132,-85,62,-42
486907852,-2792,-304,15980,-41,106,-46
486911346,-2756,-240,15952,-119,117,-74
486914878,-2820,-264,15860,-86,43,-68
486918262,-2748,-268,16052,-107,188,-60
486921818,-2740,-172,16008,-109,49,-82
486925288,-2792,-348,15880,-85,180,-64
486928758,-2848,-252,15964,-135,90,-79
486932228,-2784,-256,15892,-73,152,-48
486935723,-2868,-240,16024,-120,143,-64
486939255,-2900,-324,15936,-68,98,-62
486942638,-2832,-228,16104,-99,187,-58
486946108,-2856,-272,16044,-86,44,-95
486949492,-2832,-236,15960,-58,134,-36
486952962,-2760,-240,15976,-110,65,-37
486956432,-2840,-188,16168,-80,93,-54
486959818,-2784,-192,16112,-138,116,-80
486963421,-2868,-116,15952,-87,38,-64
486966755,-2860,-140,16092,-107,182,-70
486970311,-2808,-312,15960,-102,69,-53
486973782,-2672,-236,16140,-91,156,-51
486977251,-2848,-216,16040,-117,86,-52
486980722,-2848,-172,15836,-76,136,-59
486984191,-2912,-184,15968,-84,180,-57
486987685,-2912,-240,15996,-93,54,-51
486991045,-2776,-228,16084,-105,157,-63
486994602,-2812,-236,15936,-106,54,-83
486998072,-2756,-244,15948,-60,202,-42
487001577,-2820,-248,15884,-106,43,-51
487005011,-2828,-268,16000,-68,139,-65
487008481,-2852,-212,15912,-115,150,-72
487012063,-2840,-112,15848,-79,65,-54
487015421,-2716,-180,15816,-91,176,-82
487018892,-2836,-204,15828,-83,36,-33
487022275,-2908,-240,15960,-59,160,-51
487025745,-2852,-292,15976,-93,67,-67
487029128,-2920,-244,15824,-62,116,-64
487032598,-2748,-180,15844,-118,98,-111
487036179,-2824,-268,15912,-90,32,-43
487039538,-2836,-188,15952,-138,161,-98
487043095,-2836,-144,15968,-118,40,-68
487046565,-2696,-112,16092,-58,181,-63
487050035,-2852,-276,15960,-105,78,-70
487053505,-2840,-144,15992,-81,130,-43
487056975,-2780,-284,15932,-85,157,-80
487060547,-2836,-244,16128,-81,87,-61
487063828,-2776,-132,15876,-127,126,-65
487067385,-2824,-168,16036,-95,44,-76
487070768,-2868,-328,15804,-102,171,-42
487074325,-2836,-204,16080,-96,25,-62
487077708,-2924,-112,15936,-57,155,-47
487081178,-2660,-244,16036,-127,101,-73
487084738,-2864,-328,15948,-84,131,-44
487088228,-2848,-212,15888,-109,142,-79
487091762,-2844,-252,15844,-111,69,-73
487095231,-2812,-172,15828,-53,168,-55
487098702,-2820,-264,16060,-104,46,-67
487102210,-2744,-208,16000,-74,121,-71
487105642,-2760,-224,15916,-124,61,-47
487109111,-2824,-192,16056,-97,66,-71
487112519,-2780,-212,15992,-116,131,-56
487116052,-2900,-164,15852,-79,55,-73
487119435,-2748,-220,15980,-73,169,-69
487122905,-2736,-100,15996,-106,48,-77
487126375,-2876,-136,16048,-66,154,-53
487129845,-2856,-284,15936,-115,100,-66
487133402,-2856,-276,16128,-56,97,-44
487136809,-2860,-220,16064,-106,170,-77
487140341,-2740,-140,15868,-78,66,-80
487143725,-2736,-140,16072,-81,156,-90
487147195,-2768,-212,15908,-111,51,-71
487150665,-2860,-228,15964,-74,104,-43
487154135,-2812,-244,16012,-93,98,-68
487157518,-2944,-120,16012,-88,79,-85
487160950,-2776,-184,15992,-119,162,-53
487164458,-2824,-176,16072,-64,94,-77
487167841,-2832,-212,15932,-81,187,-63
487171311,-2952,-120,16012,-105,73,-73
487174781,-2836,-232,15968,-47,137,-44
487178251,-2800,-136,15964,-84,51,-78
487181635,-2880,-196,15980,-81,108,-60
487185128,-2816,-212,15932,-138,111,-59
487188661,-2892,-204,15808,-95,73,-51
487192044,-2828,-232,16024,-99,169,-65
487195514,-2828,-228,16072,-107,44,-66
487198985,-2824,-148,15944,-67,178,-60
487202489,-2820,-252,15896,-104,89,-45
487205925,-2764,-244,16012,-66,135,-69
487209394,-2792,-204,15832,-107,161,-55
487212976,-2808,-124,16044,-86,80,-49
487216334,-2844,-192,16020,-56,177,-45
487219804,-2852,-204,15964,-89,54,-57
487223188,-2848,-192,15812,-75,178,-39
487226658,-2780,-288,16048,-107,99,-63
487230128,-2804,-180,16004,-53,121,-47
487233598,-2792,-256,15972,-106,129,-56
487237179,-2836,-152,16036,-70,41,-74
487240538,-2748,-168,15840,-80,160,-76
487244008,-2828,-168,15880,-96,39,-71
487247391,-2852,-212,15972,-54,155,-62
487250861,-2872,-276,16048,-101,74,-58
487254331,-2820,-256,15968,-80,94,-68
487257714,-2932,-220,15808,-104,126,-72
487261319,-2736,-244,16056,-107,44,-59
487264741,-2788,-208,15992,-110,175,-67
487268298,-2844,-196,15884,-98,46,-88
487271681,-2788,-264,16072,-54,186,-59
487275151,-2880,-240,15836,-104,81,-92
487278621,-2784,-188,16020,-72,152,-55
487282091,-2864,-272,15908,-120,132,-62
487285671,-2904,-232,16160,-71,88,-57
487289031,-2772,-232,16032,-105,178,-57
487292588,-2856,-220,15960,-78,48,-62
487295971,-2680,-244,15968,-74,161,-65
487299441,-2844,-228,15960,-108,53,-49
487302946,-2824,-240,15880,-66,113,-59
487306381,-2928,-232,15976,-125,86,-78
487309855,-2816,-236,15916,-53,122,-60
487313346,-2832,-156,15968,-125,169,-75
487316878,-2824,-272,15988,-94,57,-86
487320261,-2780,-200,15952,-111,205,-28
487323818,-2820,-136,15960,-95,40,-45
487327201,-2860,-164,15844,-68,126,-69
487330671,-2716,-232,16016,-89,61,-84
487334054,-2760,-212,15884,-84,58,-72
487337462,-2868,-156,15972,-105,135,-71
487340994,-2924,-192,15932,-99,37,-78
487344378,-2740,-132,15752,-68,157,-75
487347848,-2864,-200,15960,-123,37,-85
487351318,-2856,-284,16064,-85,156,-44
487354787,-2864,-292,15932,-101,91,-80
487358258,-2776,-188,15924,-59,121,-44
487361776,-2760,-180,15972,-119,177,-59
487365284,-2816,-252,16080,-82,68,-55
487368668,-2792,-252,15948,-79,180,-48
487372137,-2856,-316,15984,-97,58,-72
487375521,-2860,-220,16016,-99,173,-56
487378991,-2784,-228,15996,-103,62,-53
487382461,-2772,-288,15924,-61,139,-53
487385954,-2728,-160,15988,-136,129,-63
487389488,-2700,-144,15984,-65,97,-57
487392871,-2780,-208,16024,-76,153,-66
487396341,-2748,-228,16092,-72,57,-67
487399724,-2880,-144,15988,-57,147,-70
487403229,-2924,-284,15912,-117,43,-64
487406664,-2864,-264,16144,-72,105,-64
487410158,-2864,-224,16004,-124,121,-79
487413691,-2812,-204,16024,-76,45,-68
487417074,-2828,-264,15872,-106,144,-68
487420631,-2804,-200,16036,-107,43,-69
487424101,-2808,-220,15900,-68,161,-25
487427571,-2812,-232,15992,-92,111,-78
487431041,-2836,-244,15828,-76,93,-81
487434427,-2912,-104,16024,-96,160,-62
487437918,-2728,-192,15996,-110,75,-74
487441364,-2880,-172,16024,-118,151,-80
487444921,-2752,-256,15828,-109,41,-49
487448391,-2856,-152,15968,-57,139,-33
487451861,-2736,-244,15928,-107,75,-79
487455331,-2840,-204,15988,-59,75,-48
487458714,-2900,-272,15968,-123,154,-39
487462319,-2760,-260,16012,-78,46,-80
487465654,-2796,-252,15928,-67,176,-70
487469124,-2892,-288,16080,-86,43,-81
487472507,-2864,-176,16076,-65,132,-66
487475977,-2856,-248,15892,-109,55,-59
487479447,-2616,-208,15908,-84,76,-80
487482831,-2728,-208,15900,-117,114,-65
487486411,-2708,-200,15968,-68,27,-66
487489771,-2860,-184,16192,-70,182,-68
487493240,-2764,-220,16060,-123,67,-97
487496710,-2820,-200,16008,-56,136,-58
487500181,-2752,-252,15912,-132,147,-63
487503772,-2772,-208,15884,-71,61,-59
487507120,-2832,-232,16036,-87,174,-35
487510615,-2888,-176,15928,-93,56,-81
487513974,-2792,-264,15960,-86,183,-42
487517444,-2800,-152,15964,-102,74,-63
487520914,-2808,-128,15932,-74,144,-85
487524384,-2800,-164,16000,-105,128,-62
487527941,-2744,-208,16032,-86,89,-55
487531324,-2772,-180,15964,-106,148,-74
487534909,-2736,-108,15848,-65,50,-59
487538264,-2852,-220,15976,-59,134,-57
487541734,-2832,-204,15940,-113,86,-84
487545204,-2896,-160,15920,-56,79,-65
487548587,-2840,-316,15968,-122,133,-80
487552144,-2768,-224,16112,-92,24,-80
487555527,-2884,-248,15860,-111,175,-66
487559084,-2772,-200,15948,-94,23,-43
487562528,-2836,-204,15912,-57,163,-35
487565937,-2736,-132,16032,-140,111,-86
487569494,-2824,-204,15916,-58,107,-75
487572964,-2780,-172,15896,-117,149,-52
487576521,-2780,-144,16000,-93,64,-74
487579904,-2856,-244,16100,-89,148,-75
487583374,-2900,-232,16072,-65,74,-46
487586780,-2856,-152,15928,-77,163,-67
487590227,-2820,-332,15864,-94,97,-66
487593610,-2824,-184,15956,-64,131,-62
487597080,-2724,-144,15988,-120,123,-83
487600637,-2808,-220,15992,-52,79,-69
487604055,-2848,-252,16036,-98,170,-29
487607490,-2768,-284,15948,-110,81,-68
487610985,-2832,-288,16000,-50,170,-46
487614430,-2812,-236,16004,-90,54,-48
487617814,-2668,-132,16052,-56,100,-35
487621283,-2740,-212,16000,-135,76,-57
487624753,-2752,-204,16020,-70,53,-96
487628137,-2820,-168,15824,-111,150,-40
487631693,-2768,-196,16060,-116,43,-94
487635188,-2800,-200,16000,-63,154,-76
487638634,-2776,-272,15936,-119,111,-58
487642190,-2900,-248,16100,-83,110,-53
487645660,-2796,-192,16020,-79,158,-55
487649130,-2824,-160,16004,-76,64,-66
487652513,-2692,-180,16044,-46,144,-64
487655983,-2852,-176,15992,-117,57,-72
487659457,-2788,-124,15892,-47,157,-54
487662972,-2764,-308,16008,-130,107,-75
487666480,-2812,-228,16096,-79,67,-42
487669863,-2868,-240,15884,-119,169,-49
487673420,-2772,-284,16068,-79,41,-70
487676803,-2704,-220,15908,-95,173,-31
487680274,-2784,-264,15976,-93,54,-55
487683657,-2876,-180,15900,-81,113,-55
487687150,-2764,-204,15932,-92,90,-90
487690510,-2804,-204,15852,-73,64,-89
487693893,-2860,-224,16004,-119,131,-69
487697450,-2804,-236,16000,-115,33,-79
487700920,-2744,-132,15892,-63,171,-42
487704425,-2848,-180,16040,-110,65,-52
487707860,-2876,-180,16088,-85,130,-51
487711354,-2884,-284,16000,-114,122,-76
487714887,-2780,-216,15916,-58,87,-60
487718270,-2856,-316,16016,-70,165,-48
487721740,-2772,-212,15864,-80,59,-67
487725123,-2800,-252,15908,-89,192,-57
487728593,-2828,-220,15916,-119,44,-69
487732063,-2804,-184,15916,-77,145,-32
487735558,-2848,-204,15968,-126,123,-62
487739090,-2916,-392,15924,-83,98,-73
487742473,-2924,-272,16068,-80,169,-73
487745943,-2904,-216,15872,-101,65,-45
487749413,-2740,-332,16040,-50,142,-58
487752883,-2804,-296,16000,-90,80,-90
487756267,-2824,-248,15884,-71,117,-42
487759740,-2760,-168,16004,-112,107,-102
487763428,-2804,-212,15916,-85,51,-49
487766763,-2856,-124,16076,-137,171,-86
487770320,-2900,-216,15844,-80,47,-65
487773703,-2788,-248,15988,-111,195,-54
487777260,-2832,-412,15880,-121,67,-86
487780730,-2744,-172,15944,-41,156,-35
487784200,-2800,-304,15992,-127,120,-64
487787780,-2840,-232,15964,-81,68,-62
487791140,-2816,-268,16024,-97,199,-66
487794610,-2668,-208,16048,-97,58,-59
487797993,-2864,-240,16120,-86,145,-35
487801463,-2784,-292,15924,-115,76,-75
487804968,-2836,-236,16040,-45,107,-79
487808403,-2756,-208,15944,-127,123,-62
487811984,-2828,-252,16032,-97,55,-45
487815343,-2868,-260,15864,-83,163,-75
487818813,-2820,-228,15896,-111,37,-63
487822283,-2856,-252,16036,-61,131,-56
487825753,-2808,-216,15940,-85,71,-72
487829137,-2744,-232,15852,-58,85,-41
487832520,-2816,-132,15908,-123,107,-78
487836101,-2828,-256,16036,-84,55,-61
487839460,-2680,-228,15948,-106,186,-60
487843017,-2772,-260,16000,-83,50,-78
487846400,-2752,-216,15936,-82,186,-50
487849870,-2860,-220,16040,-104,68,-62
487853340,-2764,-164,15908,-65,137,-68
487856810,-2868,-172,15968,-111,134,-90
487860415,-2812,-128,15908,-77,77,-51
487863750,-2836,-208,16068,-81,171,-72
487867220,-2872,-160,15996,-103,47,-68
487870690,-2904,-132,16080,-52,137,-52
487874160,-2916,-240,16040,-79,54,-73
487877543,-2764,-184,15960,-61,131,-43
487881013,-2848,-208,15968,-129,113,-83
487884573,-2756,-252,15920,-60,98,-40
487887976,-2672,-204,15960,-107,155,-54
487891510,-2776,-184,16024,-75,47,-65
487894893,-2812,-116,15996,-69,169,-57
487898363,-2852,-212,15892,-82,63,-53
487901746,-2900,-220,15936,-67,114,-57
487905251,-2736,-120,15936,-109,101,-59
487908773,-2748,-232,15916,-96,79,-58
487912181,-2788,-224,15956,-107,168,-39
487915713,-2736,-216,15924,-119,76,-61
487919183,-2764,-240,15976,-65,139,-50
487922653,-2816,-188,15936,-140,122,-46
487926210,-2700,-184,16056,-68,110,-77
487929680,-2772,-212,16000,-117,162,-75
487933236,-2880,-256,15952,-75,83,-52
487936644,-2804,-164,15932,-92,188,-83
487940090,-2816,-220,16080,-92,33,-33
487943473,-2860,-244,16012,-54,143,-73
487946943,-2824,-200,16044,-110,71,-73
487950413,-2812,-272,16068,-77,101,-54
487953883,-2684,-300,15980,-129,132,-65
487957440,-2772,-252,16088,-94,46,-95
487960872,-2836,-188,16164,-91,157,-43
487964293,-2952,-240,15960,-82,50,-67
487967676,-2684,-96,16068,-44,166,-57
487971059,-2848,-172,16092,-96,45,-82
487974443,-2788,-244,16076,-68,105,-71
487977913,-2860,-204,16004,-71,93,-87
487981296,-2864,-284,15928,-76,61,-64
487984683,-2808,-212,15904,-125,177,-74
487988259,-2868,-292,15924,-121,61,-50
487991706,-2872,-316,16040,-75,155,-57
487995176,-2824,-216,15948,-110,104,-77
487998733,-2852,-172,16032,-80,124,-48
488002203,-2904,-232,16008,-110,157,-57
488005795,-2772,-192,16056,-80,35,-66
488009143,-2852,-256,15888,-57,139,-56
488012637,-2800,-156,16052,-96,42,-58
488015996,-2832,-208,15972,-57,149,-39
488019466,-2824,-132,15948,-137,109,-75
488023023,-2980,-192,15908,-72,99,-77
488026406,-2872,-156,15984,-92,162,-55
488029876,-2912,-228,16008,-87,75,-95
488033259,-2748,-276,16044,-84,176,-43
488036754,-2728,-240,16160,-94,24,-106
488040199,-2720,-136,15916,-83,100,-42
488043669,-2836,-212,16132,-112,99,-77
488047139,-2924,-148,15872,-91,42,-50
488050523,-2772,-172,15892,-110,157,-66
488054079,-2780,-284,15996,-99,51,-63
488057463,-2780,-268,16096,-64,198,-75
488061035,-2812,-148,16028,-95,83,-74
488064316,-2744,-212,16044,-71,132,-79
488067786,-2856,-136,16124,-103,81,-79
488071256,-2808,-172,15940,-71,69,-59
488074639,-2700,-204,15988,-99,135,-70
488078109,-2828,-232,15924,-97,66,-66
488081492,-2792,-232,16076,-112,177,-41
488085072,-2848,-224,15900,-115,33,-77
488088519,-2868,-164,16004,-46,152,-44
488092000,-2740,-232,16044,-115,115,-82
488095550,-2712,-276,16032,-56,73,-48
488098929,-2764,-152,15868,-86,178,-52
488102399,-2824,-212,16000,-95,69,-55
488105825,-2720,-168,16012,-69,150,-83
488109252,-2832,-216,16068,-91,53,-62
488112660,-2820,-164,16108,-73,173,-42
488116106,-2836,-220,15976,-129,96,-87
488119575,-2836,-192,15876,-55,108,-72
488123045,-2816,-240,15936,-95,180,-69
488126516,-2752,-280,15884,-77,33,-45
488129899,-2828,-224,16016,-82,176,-54
488133369,-2816,-188,15872,-99,51,-40
488136777,-2912,-212,15928,-64,126,-34
488140222,-2788,-252,16140,-135,97,-81
488143692,-2808,-132,15884,-47,41,-75
488147075,-2924,-196,15900,-116,172,-55
488150632,-2864,-132,16072,-99,60,-39
488154015,-2772,-252,16012,-61,163,-79
488157485,-2792,-192,15916,-94,34,-70
488160917,-2772,-112,15960,-64,142,-30
488164338,-2756,-216,15896,-108,53,-95
488167808,-2824,-288,16024,-66,73,-34
488171192,-2796,-332,16100,-110,103,-59
488174748,-2832,-172,16076,-65,53,-74
488178132,-2792,-172,16044,-128,176,-32
488181689,-2792,-172,15928,-90,54,-74
488185095,-2788,-324,16044,-75,159,-49
488188542,-2836,-220,16028,-129,102,-74
488192099,-2752,-220,16100,-53,93,-60
488195482,-2836,-220,16000,-108,183,-50
488199039,-2848,-228,15936,-90,56,-60
488202422,-2780,-232,16000,-78,201,-72
488205927,-2848,-168,16012,-101,72,-66
488209365,-2748,-176,16016,-76,149,-63
488212856,-2852,-192,16064,-97,79,-81
488216215,-2792,-100,15916,-68,153,-45
488219685,-2856,-192,16048,-122,139,-51
488223242,-2932,-160,15968,-70,73,-75
488226625,-2840,-232,15872,-113,164,-32
488230182,-2968,-204,15952,-96,49,-64
488233565,-2852,-292,15988,-64,153,-56
488237060,-2780,-184,15992,-91,70,-91
488240418,-2900,-300,16112,-71,103,-57
488243888,-2812,-212,16008,-110,132,-95
488247445,-2744,-208,15888,-82,71,-68
488250828,-2832,-176,15812,-91,155,-41
488254298,-2828,-220,15892,-105,54,-66
488257768,-2868,-228,15976,-63,157,-40
488261287,-2896,-184,16024,-101,137,-79
488264795,-2856,-228,15884,-75,97,-46
488268178,-2948,-340,15900,-101,180,-63
488271735,-2820,-204,16016,-84,49,-61
488275118,-2864,-180,15920,-73,167,-79
488278588,-2880,-264,15792,-98,90,-67
488281972,-2736,-196,15964,-80,166,-74
488285465,-2836,-132,16048,-119,76,-73
488288911,-2848,-244,15932,-64,126,-35
488292381,-2808,-200,15888,-115,127,-59
488295938,-2664,-296,15860,-71,90,-50
488299322,-2732,-108,15964,-66,169,-68
488302791,-2836,-100,15920,-99,62,-76
488306210,-2816,-212,16100,-59,158,-69
488309648,-2748,-116,15972,-83,44,-64
488313053,-2800,-236,16056,-69,117,-55
488316498,-2892,-216,16152,-99,102,-73
488319968,-2800,-184,15964,-83,92,-39
488323351,-2784,-240,15856,-120,139,-58
488326908,-2740,-200,15916,-96,76,-70
488330291,-2728,-188,15888,-95,196,-82
488333761,-2940,-212,15816,-70,48,-65
488337169,-2596,-288,16036,-47,125,-69
488340614,-2868,-284,15924,-100,80,-81
488344084,-2816,-264,15932,-57,108,-39
488347554,-2892,-100,16124,-115,117,-93
488351111,-2812,-96,15988,-108,88,-61
488354495,-2792,-204,15988,-106,148,-48
488358051,-2772,-212,15924,-89,61,-59
488361483,-2860,-192,15848,-48,158,-56
488364905,-2904,-240,15948,-140,127,-66
488368461,-2840,-144,16148,-74,89,-65
488371845,-2852,-296,15960,-108,171,-31
488375401,-2748,-204,15992,-109,60,-66
488378871,-2772,-188,15960,-82,157,-44
488382341,-2704,-200,15856,-74,46,-90
488385748,-2784,-208,15968,-59,117,-60
488389195,-2752,-180,16048,-119,71,-44
488392665,-2808,-204,15956,-80,53,-35
488396048,-2760,-216,15908,-88,149,-59
488399518,-2804,-228,16068,-83,87,-94
488402901,-2760,-188,15824,-70,163,-24
488406406,-2784,-252,15972,-103,79,-108
488409952,-2732,-196,15964,-61,104,-31
488413398,-2772,-96,15988,-145,94,-111
488416868,-2900,-116,15916,-59,62,-25
488420251,-2764,-260,16024,-128,169,-126
488423895,-2852,-104,15960,-51,39,-24
488427278,-2748,-364,15888,-110,222,-91
488430835,-2824,-296,16044,-103,31,-11
488434305,-2984,-68,15852,-83,166,-76
488437712,-3084,-88,15844,-82,130,-8
488440984,-2844,-132,15812,-61,93,-96
488444367,-2748,-272,16088,-65,176,-49
488447837,-2824,-272,15952,-105,35,-67
488451308,-2856,-220,16028,-79,191,-60
488454777,-2736,-184,15888,-110,79,-25
488458248,-2740,-264,15968,-89,129,-101
488461853,-2776,-132,16060,-86,153,-32
488465274,-2692,-296,15896,-104,104,-119
488468918,-2852,-200,15828,-42,145,-38
488472388,-2704,-176,16032,-124,78,-123
488475944,-2844,-164,16088,-46,117,-15
488479414,-2792,-264,15984,-120,157,-119
488483058,-2932,-192,16020,-62,75,-20
488486465,-2624,-344,15996,-102,218,-139
488490085,-2824,-476,16200,-71,29,44
488493381,-2752,-272,15776,-117,185,-95
488496938,-2976,-236,16116,-58,49,-14
488500321,-2612,-240,15932,-85,145,-75
488503791,-2896,-112,15960,-81,88,-47
488507209,-2636,-164,15980,-118,112,-118
488510842,-2820,-224,16148,-93,138,-32
488514288,-2616,-276,15924,-96,75,-119
488517758,-2864,-84,15984,-92,146,-34
488521141,-2776,-188,15892,-144,94,-91
488524611,-2928,-232,15960,-62,124,-67
488528081,-2920,-192,15824,-138,168,-58
488531638,-3040,-212,16128,-74,67,-66
488535046,-2900,-244,15872,-81,185,-103
488538578,-2964,-300,15992,-113,53,-58
488542048,-2836,-232,15880,-38,113,-69
488545518,-2764,-252,15864,-105,72,-64
488548988,-2884,-244,16048,-44,83,-84
488552371,-2692,-216,16200,-106,101,-48
488555928,-2800,-288,16124,-97,98,-66
488559311,-2756,-152,15976,-97,137,-44
488562842,-2896,-248,16056,-95,76,-110
488566251,-2776,-140,15720,-38,151,-60
488569721,-2892,-264,16092,-110,74,-76
488573191,-2908,-112,15788,-59,79,-30
488576574,-2880,-184,16080,-123,136,-118
488580218,-2920,-280,15816,-57,67,-10
488583601,-2712,-392,16044,-130,179,-126
488587268,-2784,-372,15944,-62,-9,-6
488590541,-2724,-384,16472,-31,235,-178
488594098,-2248,-524,15916,-90,81,-79
488597481,-3168,-108,16216,-125,114,-99
488601038,-2356,-260,15688,-132,198,-47
488604595,-2964,-52,16272,-126,63,-102
488608100,-2524,-204,15696,-87,161,-30
488611559,-3052,-84,16044,-124,69,-126
488615005,-2520,-172,15836,-75,84,-52
488618388,-3088,-80,16144,-138,142,-127
488621945,-2676,-316,15820,-83,62,-62
488625328,-3052,-268,16104,-139,203,-126
488628971,-2676,-288,15940,-88,32,-11
488632355,-3020,-280,15972,-116,189,-82
488635936,-2664,-236,15872,-91,62,-71
488639295,-2756,-196,16068,-74,179,-48
488642765,-2788,-232,16032,-101,82,-42
488646235,-2740,-268,16008,-94,95,-87
488649618,-2892,-40,16176,-66,146,-37
488653001,-2736,-228,15812,-115,57,-103
488656558,-2756,-220,15988,-55,137,-17
488660076,-2748,-160,15976,-98,61,-96
488663411,-2692,-140,16052,-71,157,-34
488666881,-2824,-260,15928,-131,124,-82
488670438,-2788,-128,16016,-76,94,-44
488673821,-2764,-204,15836,-134,189,-73
488677378,-2952,-232,16196,-79,52,-44
488680761,-2872,-216,15916,-57,189,-66
488684231,-2868,-112,15876,-82,32,-48
488687638,-2888,-160,16072,-65,139,-69
488691084,-2772,-208,15928,-95,61,-60
488694468,-2808,-160,16072,-80,109,-59
488697938,-2756,-324,16068,-118,120,-91
488701494,-2824,-272,15976,-86,55,-67
488704878,-2816,-196,15900,-97,169,-39
488708383,-2856,-216,15960,-94,54,-69
488711756,-2872,-296,16052,-80,148,-84
488715201,-2884,-172,15888,-99,49,-76
488718584,-2836,-192,15976,-56,112,-42
488722054,-2900,-204,16056,-103,89,-81
488725524,-2972,-164,16068,-89,64,-46
488728907,-2784,-232,15968,-106,165,-80
488732464,-2832,-224,15936,-95,35,-89
488735872,-2804,-236,15856,-90,172,-62
488739317,-2808,-224,16036,-118,62,-76
488742787,-2764,-256,15980,-65,153,-52
488746257,-2788,-204,15992,-119,122,-73
488749814,-2784,-116,16024,-71,99,-68
488753198,-2780,-244,15956,-79,182,-62
488756667,-2748,-268,15916,-93,67,-53
488760099,-2720,-320,16036,-48,165,-63
488763521,-2808,-260,16096,-110,69,-74
488766991,-2864,-192,15996,-68,161,-42
488770461,-2912,-156,15792,-111,85,-97
488773931,-2808,-240,15960,-54,104,-18
488777401,-2780,-196,15876,-82,181,-106
488780957,-2812,-276,16056,-74,49,-43
488784344,-2836,-216,16024,-61,151,-41
488787834,-2848,-252,16048,-96,64,-65
488791194,-2736,-108,15936,-45,116,-37
488794664,-2816,-212,16024,-112,76,-72
488798134,-2888,-140,16024,-98,59,-56
488801517,-2804,-152,16044,-114,182,-69
488805074,-2740,-284,16012,-94,60,-42
488808492,-2784,-256,15896,-81,182,-55
488811952,-2816,-216,15832,-123,62,-67
488815397,-2868,-252,16036,-74,117,-52
488818867,-2824,-240,15868,-121,121,-60
488822424,-2872,-176,15860,-73,86,-52
488825807,-2848,-264,15924,-106,179,-78
488829364,-2844,-304,15868,-94,65,-42
488832747,-2812,-260,15928,-89,166,-68
488836242,-2752,-220,16072,-108,44,-84
488839687,-2888,-248,15984,-61,138,-58
488843157,-2848,-188,15960,-111,142,-60
488846714,-2720,-180,16060,-106,50,-89
488850184,-2692,-160,16056,-76,176,-66
488853654,-2792,-40,16080,-90,40,-60
488856950,-2804,-196,15936,-74,127,-51
488860469,-2936,-156,16024,-111,96,-61
488863890,-2916,-116,15896,-101,81,-49
488867360,-2736,-204,15964,-95,145,-80
488870830,-2820,-292,16076,-106,42,-76
488874300,-2896,-212,16104,-62,196,-25
488877771,-2920,-312,15952,-116,63,-77
488881241,-2804,-156,16020,-44,125,-37
488884714,-2836,-248,15968,-129,140,-52
488888290,-2900,-228,16108,-67,91,-55
488891651,-2816,-216,16028,-92,194,-50
488895120,-2800,-248,15924,-106,39,-83
488898590,-2684,-60,16028,-43,171,-27
488901974,-2612,-248,16000,-114,33,-69
488905444,-2788,-236,16112,-63,149,-33
488908949,-2780,-188,16092,-127,158,-71
488912495,-2828,-308,15916,-90,43,-65
488915854,-2828,-216,15948,-82,189,-57
488919324,-2892,-248,15916,-101,65,-59
488922794,-2956,-252,15864,-78,171,-51
488926264,-2776,-260,15960,-62,57,-60
488929647,-2720,-200,15940,-61,100,-41
488933117,-2760,-244,15924,-116,93,-71
488936611,-2668,-144,15960,-69,45,-53
488939970,-2852,-164,15952,-84,148,-68
488943440,-2764,-272,15872,-94,43,-67
488946824,-2848,-208,16072,-92,177,-57
488950293,-2812,-216,16120,-98,58,-74
488953677,-2840,-252,15984,-54,151,-62
488957147,-2816,-212,16032,-116,65,-41
488960666,-2856,-212,15896,-76,82,-60
488964000,-2884,-196,15976,-125,98,-79
488967470,-2888,-260,15892,-74,57,-62
488970853,-2844,-240,15932,-116,170,-65
488974410,-2804,-212,16016,-75,65,-48
488977793,-2908,-268,15948,-45,162,-86
488981263,-2840,-296,16028,-111,94,-53
488984737,-2812,-184,16020,-53,122,-40
488988226,-2848,-232,15980,-121,155,-65
488991760,-2956,-172,16100,-67,71,-85
488995143,-2812,-176,15892,-90,192,-57
488998613,-2784,-288,15948,-90,56,-61
489001997,-2848,-188,15884,-99,190,-57
489005467,-2788,-232,16012,-103,56,-57
489008975,-2832,-172,15800,-70,149,-71
489012431,-2936,-224,15916,-102,108,-71
489015963,-2780,-344,15936,-51,96,-54
489019347,-2728,-148,15996,-78,190,-66
489022817,-2744,-180,16108,-93,75,-68
489026200,-2828,-164,16040,-45,137,-24
489029670,-2800,-204,15948,-119,60,-45
489033140,-2832,-268,15868,-68,76,-63
489036547,-2852,-224,15996,-118,122,-76
489040080,-2800,-176,15944,-75,72,-76
489043463,-2744,-224,15992,-90,180,-101
489047020,-2748,-292,15912,-106,70,-41
489050490,-2740,-136,15872,-51,161,-59
489053960,-2748,-228,15968,-109,99,-43
489057430,-2776,-292,16000,-65,112,-59
489061002,-2812,-188,15936,-118,186,-25
489064456,-2948,-140,15976,-73,79,-84
489067840,-2808,-276,16052,-61,146,-70
489071310,-2732,-248,15892,-98,34,-55
489074693,-2732,-204,16028,-80,159,-58
489078163,-2844,-256,15884,-112,102,-81
489081720,-2764,-204,15904,-51,61,-52
489085126,-2684,-192,15884,-101,184,-71
489088660,-2864,-168,15808,-91,53,-82
489092043,-2740,-132,15876,-55,155,-36
489095513,-2772,-248,15992,-103,58,-79
489098983,-2836,-200,15876,-80,87,-62
489102366,-2924,-196,15844,-105,91,-87
489105836,-2780,-232,15984,-70,73,-64
489109258,-2908,-300,16012,-129,149,-53
489112801,-2844,-252,15884,-114,54,-64
489116246,-2724,-204,16004,-64,172,-56
489119716,-2852,-200,15908,-113,88,-87
489123186,-2780,-204,15920,-73,116,-48
489126656,-2736,-172,16068,-123,155,-55
489130213,-2700,-188,15996,-84,53,-87
489133596,-2780,-228,15764,-58,171,-43
489137091,-2760,-172,15960,-86,67,-48
489140450,-2728,-188,15984,-79,191,-69
489143919,-2728,-220,16032,-94,75,-89
489147303,-2772,-188,16100,-52,150,-29
489150773,-2864,-184,16020,-109,137,-102
489154416,-2768,-228,15972,-75,48,-61
489157800,-2812,-288,16120,-77,184,-43
489161318,-2752,-236,16032,-85,46,-97
489164653,-2868,-252,15828,-91,162,-50
489168123,-2824,-216,15936,-104,54,-84
489171593,-2772,-192,15968,-70,102,-50
489175063,-2736,-184,16008,-138,139,-79
489178619,-2720,-324,16048,-70,57,-35
489182003,-2884,-236,15924,-94,150,-52
489185496,-2752,-268,16136,-98,44,-38
489188856,-2808,-272,15864,-82,163,-49
489192326,-2900,-280,16024,-111,84,-63
489195796,-2828,-216,15932,-65,117,-68
489199266,-2740,-252,15980,-136,137,-73
489202823,-2856,-168,16120,-90,61,-28
489206206,-2816,-204,15944,-73,184,-59
489209711,-2768,-164,15960,-89,22,-41
489213084,-2784,-160,15840,-97,201,-65
489216529,-2820,-268,16020,-73,46,-71
489219912,-2892,-220,15936,-49,138,-63
489223382,-2768,-136,16028,-134,108,-66
489226939,-2828,-208,16104,-34,72,-55
489230322,-2716,-304,16048,-107,170,-54
489233879,-2860,-188,15936,-115,54,-82
489237374,-2880,-196,15876,-50,177,-37
489240819,-2780,-152,15992,-90,54,-69
489244203,-2816,-220,16124,-60,126,-82
489247672,-2784,-240,16020,-104,77,-22
489251142,-2880,-244,16104,-90,48,-71
489254526,-2764,-224,16024,-93,161,-54
489257996,-2860,-216,15968,-93,49,-58
489261427,-2784,-284,16020,-102,162,-48
489264936,-2816,-216,15980,-83,41,-74
489268319,-2872,-232,16004,-38,123,-54
489271789,-2808,-180,15968,-86,74,-55
489275172,-2716,-248,16064,-74,70,-54
489278556,-2808,-200,15908,-105,137,-54
489282112,-2788,-228,15980,-83,29,-48
489285519,-2804,-200,15908,-97,175,-58
489288965,-2760,-176,16008,-101,76,-67
489292435,-2872,-192,15884,-54,126,-50
489295906,-2868,-256,15924,-112,125,-91
489299462,-2784,-204,15932,-54,78,-24
489302845,-2932,-244,16088,-127,171,-57
489306402,-2800,-200,15952,-87,64,-61
489309829,-2756,-200,15960,-66,192,-15
489313256,-2824,-236,15868,-110,33,-102
489316812,-2816,-236,15916,-55,151,-46
489320282,-2736,-328,16120,-116,62,-67
489323752,-2868,-224,16044,-79,72,-50
489327136,-2832,-192,15960,-129,140,-75
489330692,-2868,-256,15840,-96,64,-82
489334075,-2848,-184,15888,-68,172,-43
489337570,-2796,-252,15916,-93,76,-57
489340929,-2784,-240,15976,-72,146,-52
489344399,-2872,-164,16020,-94,52,-74
489347782,-2832,-268,15832,-70,81,-66
489351165,-2888,-244,15948,-110,120,-91
489354722,-2820,-252,15868,-88,66,-73
489358105,-2832,-160,16176,-93,163,-62
489361624,-2816,-240,15904,-109,62,-56
489365045,-2880,-256,16136,-81,149,-51
489368515,-2788,-256,16068,-108,136,-69
489372072,-2792,-268,16056,-74,87,-38
489375455,-2792,-180,16048,-128,115,-67
489379012,-2712,-176,16100,-74,58,-76
489382395,-2804,-232,16032,-105,180,-57
489385977,-2824,-280,15944,-112,65,-82
489389422,-2768,-264,16020,-75,103,-49
489392892,-2808,-280,15956,-114,130,-105
489396536,-2804,-288,15996,-93,47,-40
489399919,-2832,-268,15960,-97,154,-86
489403389,-2792,-252,15868,-94,52,-72
489406772,-2684,-212,15964,-71,184,-59
489410284,-2752,-140,16056,-91,41,-65
489413625,-2864,-256,16008,-42,98,-59
489417008,-2792,-280,15840,-101,73,-90
489420479,-2748,-208,16036,-80,81,-35
489423862,-2768,-300,16016,-103,130,-74
489427419,-2864,-164,15832,-94,36,-68
489430802,-2804,-116,16056,-92,161,-71
489434275,-2780,-188,15916,-97,104,-53
489437766,-2724,-96,16132,-73,100,-43
489441125,-2812,-80,15992,-102,84,-91
489444508,-2820,-184,15936,-91,72,-63
489447892,-2828,-192,16000,-88,193,-79
489451362,-2880,-152,16032,-128,61,-51
489454832,-2740,-216,15992,-42,153,-62
489458301,-2832,-296,15872,-119,139,-71
489461907,-2824,-236,15888,-45,95,-70
489465242,-2844,-164,15972,-92,174,-40
489468712,-2672,-228,15980,-77,44,-66
489472095,-2776,-260,15972,-59,151,-37
489475565,-2856,-176,15928,-118,75,-61
489479035,-2920,-124,16080,-49,138,-51
489482505,-2788,-208,15888,-109,75,-73
489485999,-2972,-180,16080,-84,114,-78
489489445,-2820,-224,16088,-103,167,-81
489493002,-2772,-164,16056,-99,46,-47
489496385,-2836,-364,15840,-90,179,-69
489499855,-2832,-192,15912,-78,48,-38
489503238,-2868,-188,15992,-55,150,-69
489506708,-2876,-276,15964,-83,52,-56
489510115,-2888,-156,16096,-70,97,-80
489513509,-2704,-176,15908,-113,119,-78
489517031,-2812,-228,15984,-79,41,-84
489520415,-2784,-228,15868,-94,179,-60
489523885,-2840,-176,15964,-98,61,-34
489527268,-2736,-268,16068,-75,169,-61
489530738,-2860,-200,15988,-75,47,-84
489534121,-2864,-196,15980,-60,119,-77
489537615,-2848,-200,15868,-111,78,-89
489541061,-2780,-264,16080,-61,74,-77
489544444,-2816,-208,15988,-110,157,-62
489548001,-2804,-172,15992,-69,55,-58
489551384,-2796,-212,16044,-78,184,-46
489554854,-2780,-212,16000,-128,80,-60
489558324,-2920,-252,15828,-51,130,-39
489561855,-2764,-196,16044,-124,144,-80
489565351,-2824,-188,15872,-87,86,-60
489568734,-2776,-236,15976,-59,186,-40
489572204,-2792,-152,15872,-97,54,-83
489575587,-2836,-216,15940,-74,178,-61
489579058,-2760,-300,16020,-105,69,-81
489582527,-2792,-272,15888,-50,125,-54
489586022,-2856,-140,15900,-130,125,-67
489589554,-2756,-172,16004,-71,105,-45
489593024,-2896,-196,15984,-75,183,-48
489596494,-2852,-268,16080,-77,94,-77
489599878,-2832,-176,16028,-56,150,-59
489603348,-2868,-144,15976,-107,70,-63
489606817,-2780,-76,15912,-69,91,-40
489610137,-2808,-248,15940,-123,145,-59
489613706,-2796,-148,16060,-85,42,-55
489617054,-2716,-244,16024,-72,189,-72
489620524,-2852,-200,15924,-121,62,-66
489623994,-2724,-296,16084,-51,156,-48
489627464,-2776,-312,16048,-141,123,-96
489631021,-2736,-244,15992,-78,103,-53
489634494,-2912,-272,15964,-80,172,-62
489637985,-2868,-260,16044,-99,55,-47
489641344,-2760,-260,16036,-103,191,-104
489644987,-2820,-184,15980,-74,68,-73
489648371,-2720,-204,15968,-69,130,-47
489651841,-2768,-172,16012,-110,62,-51
489655311,-2748,-248,16064,-48,147,-50
489658781,-2808,-240,15996,-124,146,-97
489662386,-2788,-260,15900,-82,68,-84
489665721,-2700,-144,15880,-87,157,-47
489669191,-2796,-224,15724,-89,60,-67
489672574,-2780,-168,16020,-53,163,-62
489676044,-2816,-228,15996,-103,45,-95
489679514,-2812,-176,15952,-74,75,-37
489682897,-2776,-172,16128,-103,106,-75
489686479,-2836,-168,16116,-91,76,-56
489689837,-2744,-224,15960,-102,159,-65
489693399,-2796,-232,15904,-71,59,-49
489696777,-2716,-116,15952,-89,159,-58
489700247,-2796,-244,15848,-105,88,-71
489703717,-2820,-320,16052,-52,122,-36
489707187,-2692,-300,15964,-108,153,-66
489710767,-2772,-156,15856,-78,69,-79
489714162,-2780,-168,15884,-67,192,-70
489717597,-2684,-340,16024,-123,43,-61
489721067,-2852,-96,16040,-36,145,-40
489724450,-2700,-244,15936,-75,64,-87
489727834,-2760,-92,15940,-66,160,-50
489731217,-2892,-124,15952,-107,115,-56
489734798,-2740,-264,16092,-53,95,-40
489738157,-2852,-268,16012,-106,147,-68
489741714,-2832,-208,16052,-81,64,-43
489745097,-2896,-200,16036,-40,172,-61
489748567,-2676,-272,16096,-115,47,-47
489752037,-2780,-256,15972,-47,98,-54
489755420,-2832,-200,15952,-100,95,-53
489758890,-2920,-180,16048,-76,65,-69
489762322,-2776,-164,16028,-111,135,-68
489765830,-2844,-268,16088,-96,66,-43
489769213,-2856,-204,16032,-59,164,-57
489772683,-2868,-276,16088,-108,39,-82
489776153,-2768,-216,16076,-65,132,-44
489779623,-2908,-180,16048,-103,110,-58
489783180,-2812,-220,16000,-108,74,-27
489786675,-2860,-188,15916,-102,180,-78
489790207,-2820,-272,16012,-82,34,-62
489793590,-2816,-252,16032,-99,175,-63
489797060,-2748,-260,15956,-97,62,-67
489800443,-2788,-144,15940,-59,161,-71
489803914,-2880,-240,15964,-121,78,-67
489807383,-2784,-176,15976,-77,102,-79
489810877,-2868,-232,15912,-112,185,-29
489814445,-2824,-192,16004,-71,46,-64
489817793,-2752,-160,16076,-43,186,-70
489821264,-2832,-304,16000,-93,34,-61
489824647,-2788,-232,15964,-41,114,-75
489828117,-2764,-176,15968,-98,85,-86
489831500,-2808,-292,15952,-67,129,-50
489834995,-2908,-152,16036,-101,155,-44
489838527,-2900,-328,15928,-91,59,-83
489841910,-2800,-140,15880,-75,184,-44
489845380,-2804,-236,15960,-96,42,-69
489848763,-2656,-216,16040,-59,155,-46
489852233,-2796,-244,15992,-114,60,-42
489855703,-2792,-192,16108,-89,85,-58
489859087,-2856,-204,16008,-124,113,-59
489862692,-2808,-260,15992,-72,47,-54
489866027,-2860,-212,16000,-109,172,-74
489869583,-2756,-188,15824,-92,71,-63
489872967,-2856,-308,15996,-71,148,-36
489876436,-2784,-196,15916,-122,117,-66
489879993,-2832,-144,16028,-60,76,-73
489883376,-2736,-248,16044,-85,180,-79
489886871,-2756,-164,16004,-106,54,-49
489890317,-2856,-252,16000,-101,179,-71
489893873,-2860,-288,15996,-109,61,-63
489897343,-2828,-260,16000,-88,93,-18
489900726,-2760,-260,16056,-110,111,-44
489904283,-2820,-264,15948,-64,58,-53
489907667,-2712,-308,15924,-120,195,-86
489911246,-2748,-248,15948,-74,38,-58
489914642,-2840,-240,16016,-75,170,-41
489918077,-2892,-248,16000,-94,49,-90
489921460,-2740,-208,16008,-76,125,-38
489924930,-2952,-220,15972,-83,73,-65
489928313,-2780,-104,16032,-78,65,-69
489931696,-2896,-268,15868,-111,148,-67
489935278,-2932,-192,15908,-97,53,-58
489938636,-2780,-168,16024,-92,195,-80
489942106,-2780,-256,16044,-90,61,-54
489945489,-2836,-160,15876,-52,177,-66
489948959,-2824,-224,16096,-113,48,-42
489952429,-2780,-252,16072,-49,98,-54
489955813,-2844,-184,16000,-128,69,-77
489959286,-2792,-264,16080,-81,59,-75
489962715,-2748,-312,16044,-126,157,-62
489966223,-2800,-172,15840,-71,67,-46
489969606,-2808,-256,15924,-103,192,-82
489973163,-2776,-264,15908,-91,58,-69
489976546,-2740,-284,15960,-89,171,-61
489980016,-2716,-148,15924,-112,86,-56
489983486,-2828,-176,16060,-50,117,-42
489986980,-2708,-356,16100,-120,153,-64
489990513,-2780,-216,16000,-80,39,-59
489993896,-2792,-192,16020,-103,142,-79
489997453,-2768,-168,16088,-104,54,-41
490000923,-2872,-240,16016,-55,133,-56
490004393,-2780,-308,16004,-106,61,-78
490007863,-2860,-252,15992,-66,161,-67
490011356,-2792,-244,16000,-113,120,-32
490014924,-2724,-288,16028,-80,72,-52
490018273,-2788,-308,15968,-84,175,-24
490021743,-2780,-300,15984,-82,70,-86
490025126,-2744,-200,16020,-61,139,-27
490028596,-2816,-216,15952,-115,45,-84
490032066,-2804,-224,15904,-67,129,-46
490035561,-2728,-184,15896,-118,84,-64
490039006,-2780,-220,15908,-80,68,-79
490042389,-2780,-228,16072,-114,173,-61
490045946,-2756,-232,15892,-71,52,-60
490049329,-2828,-228,16028,-76,160,-46
490052799,-2832,-180,16024,-120,92,-32
490056269,-2888,-208,15936,-44,99,-54
490059656,-2756,-228,16048,-111,95,-58
490063225,-2820,-164,15952,-100,74,-49
490066593,-2956,-244,15988,-100,129,-79
490070149,-2768,-172,16028,-85,56,-52
490073532,-2864,-280,16148,-86,180,-61
490077002,-2756,-148,16000,-112,67,-93
490080473,-2692,-212,16132,-33,160,-67
490083942,-2780,-220,15808,-140,127,-46
490087524,-2808,-204,15844,-66,88,-97
490090883,-2784,-160,16112,-73,164,-84
490094353,-2816,-168,15900,-104,61,-67
490097822,-2744,-228,15936,-48,136,-45
490101292,-2892,-172,15912,-93,94,-64
490104676,-2776,-140,15896,-74,77,-70
490108059,-2776,-208,16080,-124,95,-51
490111552,-2772,-220,16000,-94,64,-48
490114955,-2824,-240,15984,-79,159,-46
490118382,-2836,-216,16032,-107,60,-58
490121852,-2800,-196,16000,-72,131,-42
490125322,-2856,-252,15924,-100,97,-72
490128792,-2816,-200,16048,-78,68,-49
490132175,-2760,-144,16056,-120,148,-88
490135757,-2832,-216,16112,-80,34,-56
490139115,-2888,-316,16068,-72,191,-50
490142586,-2832,-120,16092,-111,98,-32
490146055,-2836,-240,16072,-59,140,-64
490149525,-2812,-256,15904,-103,110,-75
490153082,-2888,-228,15940,-69,97,-66
490156466,-2928,-168,15928,-104,176,-45
490160071,-2900,-248,16028,-65,41,-81
490163405,-2724,-256,16000,-73,158,-53
490166876,-2856,-188,16016,-86,52,-85
490170259,-2764,-280,16024,-36,114,-37
490173729,-2760,-208,15956,-147,105,-83
490177285,-2904,-300,15952,-94,69,-37
490180669,-2800,-208,15888,-108,159,-69
490184229,-2784,-296,16040,-88,39,-52
490187633,-2716,-248,15980,-58,161,-54
490191079,-2800,-164,16008,-112,60,-69
490194549,-2796,-176,15972,-63,141,-41
490198019,-2688,-204,15884,-98,94,-78
490201402,-2888,-308,16036,-73,66,-46
490204785,-2832,-312,15932,-96,123,-83
490208255,-2820,-208,15972,-98,72,-99
490211662,-2848,-276,16100,-98,163,-33
490215144,-2768,-248,15796,-108,57,-83
490218578,-2832,-244,15912,-59,143,-56
490222048,-2940,-200,16028,-116,142,-60
490225605,-2784,-204,15812,-71,92,-49
490228988,-2884,-240,15888,-139,133,-51
490232545,-2780,-284,16068,-88,43,-69
490235953,-2720,-256,15940,-97,185,-82
490239398,-2808,-276,16040,-94,61,-54
490242782,-2804,-320,15916,-62,169,-58
490246252,-2836,-196,16120,-124,118,-78
490249808,-2792,-164,15992,-49,109,-72
490253279,-2824,-148,15960,-109,153,-67
490256835,-2868,-232,15932,-101,78,-84
490260354,-2780,-156,15928,-90,174,-70
490263775,-2832,-240,16052,-96,51,-63
490267159,-2776,-188,15924,-41,140,-74
490270629,-2776,-184,15828,-124,92,-25
490274098,-2804,-276,16028,-49,68,-65
490277482,-2800,-244,15864,-135,138,-67
490281039,-2708,-192,16016,-73,54,-64
490284425,-2852,-196,16016,-99,185,-74
490287916,-2880,-280,15968,-87,46,-66
490291275,-2812,-212,15932,-52,149,-37
490294745,-2760,-260,15996,-123,88,-56
490298215,-2796,-240,16008,-58,123,-70
490301685,-2808,-232,15932,-118,93,-53
490305155,-2808,-288,16004,-83,78,-70
490308538,-2860,-232,15960,-111,180,-49
490312118,-2788,-308,15960,-76,39,-108
490315600,-2776,-164,16096,-104,185,-61
490319122,-2892,-256,16000,-116,107,-39
490322678,-2772,-160,15904,-79,80,-72
490326062,-2784,-220,16020,-106,126,-86
490329619,-2856,-304,16016,-103,62,-58
490333088,-2824,-296,15980,-82,173,-76
490336583,-2792,-184,15900,-127,79,-93
490340029,-2880,-132,15976,-72,134,-33
490343498,-2828,-192,15920,-112,61,-67
490346968,-2772,-212,15876,-71,68,-51
490350352,-2716,-264,16100,-132,159,-67
490353908,-2832,-116,16016,-67,31,-46
490357292,-2748,-156,16100,-85,198,-84
490360810,-2900,-280,16064,-99,79,-53
490364145,-2716,-184,16032,-55,137,-52
490367615,-2812,-244,15992,-114,121,-63
490371172,-2828,-212,15828,-49,89,-84
490374555,-2844,-260,16060,-94,152,-68
490378025,-2888,-216,15972,-70,79,-70
490381408,-2864,-256,15892,-74,145,-55
490384903,-2780,-220,15940,-94,66,-64
490388262,-2836,-160,15920,-49,150,-54
490391731,-2756,-104,15864,-124,95,-78
490395202,-2868,-212,15884,-71,85,-40
490398585,-2776,-244,16020,-108,187,-80
490402142,-2736,-216,15984,-78,87,-76
490405525,-2856,-352,15984,-77,184,-63
490408995,-2964,-244,15936,-108,26,-60
490412488,-2748,-236,15904,-81,114,-67
490415970,-2772,-232,16016,-127,87,-64
490419405,-2844,-256,15920,-80,76,-53
490422788,-2780,-204,15936,-116,157,-60
490426345,-2852,-252,15972,-106,54,-71
490429815,-2800,-244,16020,-73,172,-61
490433285,-2788,-240,15968,-124,85,-107
490436866,-2740,-288,16024,-57,134,-57
490440311,-2840,-180,16064,-104,164,-56
490443868,-2792,-172,16056,-94,89,-19
490447252,-2720,-260,16140,-111,174,-93
490450808,-2844,-252,16048,-102,39,-69
490454278,-2740,-204,16032,-68,150,-34
490457748,-2836,-172,15936,-100,61,-87
490461267,-2808,-268,16108,-74,142,-61
490464688,-2868,-244,16088,-115,70,-76
490468158,-2904,-144,15904,-85,55,-85
490471541,-2724,-216,15988,-91,147,-76
490475012,-2696,-196,15888,-107,44,-62
490478481,-2752,-208,15884,-64,176,-66
490481952,-2868,-248,15948,-127,71,-42
490485446,-2912,-92,16036,-32,133,-45
490488805,-2820,-224,15900,-102,57,-61
490492275,-2792,-240,15932,-85,94,-59
490495658,-2860,-228,16016,-112,139,-67
490499215,-2816,-228,16024,-96,55,-58
490502598,-2752,-176,16120,-87,184,-42
490506068,-2816,-152,15940,-92,51,-64
490509455,-2792,-152,16016,-72,157,-45
490512944,-2760,-164,15904,-119,102,-64
490516513,-2800,-228,15916,-68,120,-59
490519948,-2788,-236,16104,-117,165,-31
490523505,-2812,-268,15952,-90,66,-60
490526888,-2816,-244,16028,-71,173,-38
490530358,-2760,-228,15908,-81,52,-63
490533741,-2792,-264,16048,-56,108,-59
490537236,-2764,-172,16040,-122,88,-77
490540681,-2872,-224,16000,-46,110,-85
490544151,-2848,-192,15988,-116,143,-80
490547708,-2876,-184,15988,-66,59,-44
490551091,-2800,-192,15988,-79,186,-38
490554561,-2824,-256,15968,-101,49,-63
490558031,-2772,-168,15952,-92,163,-57
490561562,-2756,-124,15952,-103,72,-97
490564971,-2780,-216,16024,-56,80,-55
490568354,-2788,-236,15976,-116,102,-58
490571911,-2796,-188,15896,-72,45,-54
490575294,-2760,-248,15844,-102,171,-60
490578851,-2776,-216,15852,-99,33,-85
490582235,-2804,-276,16000,-82,173,-30
490585729,-2864,-200,16152,-107,67,-77
490589175,-2852,-284,16072,-64,152,-45
490592645,-2912,-272,15800,-118,128,-90
490596201,-2832,-184,15996,-91,78,-54
490599584,-2860,-216,16020,-90,186,-59
490603054,-2836,-176,15904,-82,53,-64
490606438,-2816,-240,16080,-82,140,-42
490609931,-2668,-232,16092,-106,50,-75
490613378,-2784,-276,15976,-61,137,-57
490616883,-2908,-192,16024,-94,137,-95
490620318,-2736,-252,16000,-73,73,-69
490623701,-2748,-240,16012,-88,180,-48
490627171,-2900,-316,15920,-73,58,-66
490630554,-2792,-128,15940,-60,207,-42
490634024,-2880,-212,15944,-108,67,-57
490637519,-2892,-144,15880,-38,122,-45
490640964,-2784,-252,15956,-117,126,-69
490644521,-2780,-188,16068,-65,58,-75
490647904,-2732,-224,15824,-122,161,-70
490651461,-2804,-200,15960,-83,58,-62
490654844,-2864,-192,16036,-85,176,-65
490658314,-2788,-176,16116,-118,94,-72
490661832,-2808,-220,15804,-63,104,-48
490665254,-2720,-148,16024,-106,162,-75
490668811,-2788,-208,15924,-102,74,-56
490672281,-2776,-268,16092,-79,181,-34
490675751,-2776,-272,16036,-102,47,-77
490679221,-2856,-256,16108,-42,164,-54
490682691,-2812,-204,16096,-117,58,-72
490686185,-2812,-340,15928,-72,85,-65
490689544,-2820,-228,15940,-118,134,-63
490693101,-2760,-288,15948,-86,51,-88
490696484,-2888,-288,16000,-79,170,-52
490699954,-2852,-228,15852,-99,62,-55
490703337,-2784,-256,16052,-55,100,-62
490706807,-2828,-232,16056,-127,84,-81
490710301,-2912,-228,16200,-72,86,-70
490713661,-2888,-132,15956,-110,138,-46
490717252,-2804,-236,16012,-77,54,-85
490720601,-2836,-152,16000,-90,174,-57
490724071,-2860,-252,15856,-101,69,-69
490727541,-2776,-128,16048,-65,104,-50
490731011,-2788,-204,16056,-119,137,-63
490734571,-2784,-120,15932,-77,98,-69
490737975,-2756,-232,16040,-47,174,-51
490741421,-2800,-152,15992,-89,47,-58
490744804,-2804,-160,15860,-97,156,-83
490748274,-2712,-272,15988,-116,59,-56
490751744,-2812,-132,15948,-68,121,-36
490755214,-2724,-256,15940,-111,175,-64
490758771,-2812,-276,15900,-84,68,-69
490762202,-2768,-176,15924,-63,214,-78
490765624,-2756,-268,15952,-84,57,-77
490769007,-2912,-192,15980,-54,128,-53
490772477,-2740,-144,15928,-113,74,-84
490775947,-2704,-132,16048,-51,94,-60
490779331,-2892,-212,15892,-130,116,-73
490782887,-2804,-164,15992,-91,71,-45
490786295,-2812,-284,15908,-79,168,-53
490789741,-2868,-192,15944,-111,37,-46
490793210,-2772,-172,16104,-76,171,-43
490796680,-2768,-156,16052,-112,37,-71
490800150,-2840,-244,15984,-58,103,-56
490803621,-2728,-212,15896,-99,108,-56
490807090,-2816,-272,16024,-104,71,-59
490810584,-2848,-232,15896,-95,163,-41
490814031,-2864,-132,16140,-82,53,-70
490817449,-2744,-292,16000,-65,172,-40
490820884,-2844,-224,15964,-101,86,-84
490824354,-2836,-256,15960,-66,118,-39
490827824,-2844,-280,16120,-138,116,-67
490831381,-2844,-128,15972,-64,91,-47
490834788,-2740,-244,15860,-117,179,-77
490838321,-2808,-248,16080,-77,57,-53
490841704,-2792,-232,15848,-63,185,-67
490845174,-2724,-188,15944,-105,26,-67
490848644,-2820,-172,15980,-80,115,-62
490852114,-2740,-188,15912,-111,79,-84
490855584,-2864,-196,15984,-95,60,-62
490858967,-2772,-140,15904,-101,135,-59
490862572,-2696,-196,15972,-97,32,-69
490865907,-2824,-220,16116,-88,183,-53
490869377,-2848,-140,15988,-100,54,-67
490872847,-2756,-192,16004,-70,118,-35
490876317,-2800,-188,15872,-98,80,-98
490879700,-2816,-184,15996,-71,98,-55
490883084,-2868,-232,15956,-132,121,-84
490886665,-2872,-188,16056,-90,63,-49
490890023,-2740,-268,15876,-83,156,-63
490893493,-2804,-172,15884,-122,63,-63
490896964,-2760,-272,15868,-75,141,-63
490900434,-2848,-148,16064,-123,154,-59
490903990,-2852,-192,16036,-75,90,-57
490907373,-2868,-300,15952,-88,145,-69
490910867,-2840,-144,15924,-75,76,-81
490914227,-2804,-328,15968,-46,138,-58
490917732,-2808,-288,16024,-102,74,-76
490921167,-2924,-176,15992,-33,138,-48
490924637,-2804,-240,16036,-91,130,-58
490928107,-2808,-240,16044,-63,89,-76
490931490,-2832,-240,16024,-93,221,-69
490934985,-2804,-208,16112,-110,67,-66
490938430,-2644,-164,16024,-52,132,-35
490941900,-2856,-148,16176,-110,54,-85
490945370,-2796,-240,15952,-74,66,-87
490948753,-2864,-228,15988,-121,152,-53
490952310,-2880,-184,16000,-89,58,-60
490955693,-2916,-352,15976,-97,140,-85
490959167,-2676,-164,15920,-89,38,-64
490962596,-2848,-236,16056,-60,145,-67
490966017,-2864,-120,15916,-129,131,-54
490969573,-2784,-196,16048,-67,63,-55
490972957,-2844,-256,16024,-118,132,-62
490976513,-2872,-280,16052,-87,35,-77
490979897,-2776,-312,15972,-89,161,-64
490983367,-2768,-68,15908,-107,57,-65
490986774,-2756,-256,15972,-59,150,-53
490990220,-2716,-180,15928,-109,137,-92
490993777,-2768,-276,15952,-70,91,-57
490997160,-2824,-220,15920,-96,174,-49
491000630,-2744,-212,16120,-60,52,-51
491004013,-2928,-300,16004,-60,170,-61
491007483,-2812,-304,15872,-107,43,-40
491010976,-2968,-240,15996,-54,113,-75
491014423,-2848,-236,15964,-100,79,-55
491017928,-2872,-272,15996,-80,83,-59
491021276,-2836,-140,15908,-120,130,-78
491024833,-2908,-276,15888,-96,61,-53
491028216,-2880,-220,15900,-107,171,-56
491031773,-2820,-248,16008,-117,73,-37
491035267,-2856,-128,16076,-58,137,-31
491038713,-2760,-172,15864,-129,124,-69
491042270,-2816,-276,16024,-80,75,-67
491045653,-2756,-180,16036,-110,147,-77
491049210,-2884,-204,15988,-114,41,-39
491052680,-2808,-200,15960,-47,141,-34
491056150,-2924,-240,16024,-115,53,-56
491059623,-2788,-204,16152,-55,92,-61
491063105,-2848,-212,15872,-115,128,-85
491066560,-2788,-148,16000,-56,111,-65
491070030,-2820,-228,15912,-104,160,-37
491073586,-2756,-216,16064,-93,39,-93
491076970,-2732,-296,16000,-70,167,-64
491080440,-2800,-148,15812,-107,63,-87
491083910,-2728,-232,15980,-62,120,-60
491087404,-2880,-164,16044,-101,59,-70
491090850,-2792,-120,16084,-70,62,-44
491094233,-2648,-132,15932,-118,142,-74
491097790,-2848,-188,16060,-99,41,-71
491101173,-2824,-124,15952,-103,184,-61
491104730,-2836,-204,16036,-107,66,-46
491108200,-2860,-244,16000,-68,134,-67
491111693,-2844,-352,16028,-123,97,-65
491115140,-2728,-168,16016,-55,112,-67
491118649,-2868,-216,15944,-137,151,-68
491122167,-2784,-188,15868,-67,81,-54
491125550,-2888,-204,16012,-69,176,-55
491129020,-2940,-240,16032,-105,36,-78
491132490,-2800,-248,16052,-44,98,-40
491135898,-2904,-220,15960,-131,89,-83
491139343,-2836,-200,16064,-75,73,-49
491142726,-2800,-276,16028,-84,120,-71
491146196,-2884,-232,15988,-80,69,-51
491149580,-2860,-244,16044,-64,185,-50
491153050,-2780,-176,16076,-68,57,-66
491156433,-2716,-232,16052,-46,156,-64
491159951,-2848,-240,16028,-103,43,-68
491163373,-2724,-240,15964,-67,98,-70
491166756,-2884,-224,15980,-103,88,-65
491170226,-2744,-220,15848,-66,38,-47
491173609,-2844,-220,15952,-109,159,-70
491177166,-2808,-176,15932,-107,41,-60
491180636,-2904,-192,15980,-81,186,-64
491184106,-2836,-192,15852,-94,80,-76
491187514,-2796,-276,16056,-69,155,-63
491190959,-2736,-96,15964,-123,43,-82
491194342,-2820,-172,16100,-86,84,-73
491197726,-2836,-336,16008,-123,129,-50
491201283,-2740,-240,15996,-103,77,-69
491204752,-2824,-164,15932,-111,164,-80
491208309,-2800,-212,16076,-101,76,-63
491211803,-2816,-220,16012,-57,150,-60
491215249,-2820,-312,16000,-109,127,-98
491218841,-2780,-176,15936,-84,95,-60
491222189,-2728,-172,16048,-77,192,-57
491225659,-2828,-232,15860,-108,21,-80
491229129,-2936,-256,15988,-79,125,-59
491232599,-2804,-240,15968,-115,115,-63
491236181,-2852,-148,16012,-88,52,-45
491239539,-2828,-236,15916,-94,163,-91
491243009,-2760,-156,15992,-98,56,-68
491246393,-2860,-176,15872,-75,158,-61
491249862,-2816,-244,15948,-117,72,-33
491253332,-2916,-256,15776,-71,116,-69
491256803,-2876,-268,16200,-108,63,-66
491260321,-2848,-244,16004,-85,72,-63
491263656,-2784,-164,16028,-124,131,-79
491267212,-2736,-244,15984,-80,35,-79
491270596,-2844,-260,16000,-107,203,-62
491274153,-2812,-124,15992,-113,73,-73
491277622,-2740,-216,15904,-91,150,-35
491281092,-2824,-212,15776,-110,136,-74
491284674,-2864,-180,15916,-65,79,-86
491288033,-2812,-240,15980,-87,172,-37
491291503,-2852,-252,16060,-98,41,-61
491294890,-2744,-152,15968,-59,162,-56
491298356,-2772,-188,15928,-114,60,-63
491301826,-2704,-176,15956,-43,131,-31
491305296,-2852,-168,15920,-139,104,-66
491308852,-2932,-232,15912,-79,51,-55
491312259,-2840,-248,15936,-93,172,-78
491315706,-2828,-192,16064,-99,61,-78
491319124,-2760,-188,15984,-62,172,-36
491322559,-2864,-132,16032,-112,68,-88
491326029,-2740,-304,15960,-71,130,-44
491329499,-2996,-288,15960,-117,60,-73
491332969,-2756,-148,16036,-65,95,-46
491336377,-2820,-132,15896,-122,89,-79
491339822,-2860,-216,16076,-88,65,-79
491343205,-2748,-208,16116,-110,152,-34
491346762,-2856,-236,15972,-92,64,-34
491350146,-2752,-180,15984,-69,182,-89
491353616,-2792,-204,16012,-116,59,-65
491357085,-2864,-296,15968,-74,144,-75
491360604,-2752,-156,15904,-110,105,-74
491364112,-2820,-344,15948,-71,93,-73
491367496,-2800,-248,16016,-75,179,-67
491370966,-2856,-308,15872,-97,33,-73
491374349,-2788,-204,16000,-60,139,-35
491377819,-2824,-172,15988,-94,59,-68
491381202,-2868,-244,16076,-52,163,-46
491384696,-2820,-184,15776,-134,98,-77
491388142,-2836,-192,15924,-54,109,-57
491391612,-2776,-252,16040,-119,175,-57
491395169,-2836,-224,15888,-69,69,-51
491398552,-2932,-204,15896,-73,162,-63
491402022,-2832,-220,15808,-74,29,-62
491405405,-2748,-220,15808,-59,155,-65
491408875,-2900,-228,15924,-95,62,-100
491412368,-2740,-228,15916,-71,113,-77
491415815,-2704,-268,15972,-99,111,-41
491419320,-2840,-296,15996,-87,68,-76
491422668,-2916,-224,16128,-97,162,-41
491426139,-2808,-204,16004,-98,42,-53
491429522,-2768,-236,16036,-73,171,-40
491432992,-2916,-172,16056,-97,58,-73
491436400,-2756,-200,16068,-51,103,-25
491439845,-2768,-260,16172,-136,89,-76
491443315,-2836,-256,16072,-80,74,-70
491446698,-2856,-232,16176,-131,155,-62
491450255,-2788,-244,16016,-95,66,-59
491453638,-2868,-236,15920,-73,196,-51
491457108,-2824,-316,15996,-114,70,-91
491460627,-2772,-240,15912,-56,130,-33
491464048,-2784,-192,15984,-120,121,-69
491467605,-2804,-272,16032,-70,80,-42
491470988,-2792,-192,15924,-74,171,-61
491474458,-2884,-184,15948,-105,43,-62
491477928,-2684,-164,16100,-56,149,-37
491481398,-2820,-216,16068,-126,55,-90
491484893,-2852,-216,16048,-47,115,-48
491488338,-2888,-196,15968,-115,109,-73
491491895,-2808,-196,15936,-82,69,-46
491495278,-2868,-280,16004,-109,142,-50
491498835,-2744,-244,16036,-91,64,-79
491502218,-2812,-308,15936,-92,143,-28
491505688,-2764,-192,16012,-78,59,-65
491509072,-2812,-172,16012,-82,147,-65
491512565,-2752,-204,15920,-102,53,-40
491516012,-2844,-216,15876,-68,100,-66
491519516,-2816,-296,15960,-110,107,-74
491523038,-2880,-200,16008,-70,80,-48
491526422,-2820,-136,15908,-103,185,-60
491529978,-2836,-220,15936,-89,44,-57
491533362,-2768,-268,16012,-81,199,-80
491536856,-2728,-220,15996,-109,85,-45
491540301,-2824,-200,16048,-71,135,-59
491543772,-2740,-256,15892,-121,140,-62
491547328,-2700,-208,16016,-58,78,-54
491550712,-2880,-172,15932,-103,181,-76
491554268,-2856,-200,16040,-109,50,-23
491557738,-2768,-160,15988,-46,159,-63
491561269,-2976,-220,16032,-100,47,-86
491564678,-2824,-256,16136,-75,105,-58
491568148,-2876,-244,15968,-111,100,-74
491571705,-2796,-276,16052,-91,50,-68
491575088,-2760,-252,15896,-116,176,-56
491578645,-2800,-244,16036,-96,63,-62
491582028,-2832,-276,16008,-66,162,-67
491585523,-2804,-232,15820,-111,109,-97
491589055,-2788,-204,16036,-64,111,-63
491592525,-2772,-232,15904,-105,137,-70
491596082,-2764,-240,15876,-74,79,-46
491599465,-2724,-216,16160,-66,161,-50
491602935,-2788,-204,16112,-103,56,-89
491606405,-2768,-188,15868,-60,96,-66
491609811,-2812,-148,16012,-117,97,-59
491613258,-2844,-188,15908,-44,112,-47
491616728,-2736,-108,15984,-87,165,-43
491620233,-2844,-132,15988,-103,58,-37
491623668,-2828,-276,15996,-67,193,-74
491627138,-2824,-228,15972,-82,61,-58
491630521,-2824,-220,15916,-53,85,-50
491633905,-2844,-216,16056,-123,129,-102
491637573,-2848,-184,15952,-74,60,-53
491640932,-2736,-244,16040,-103,180,-50
491644488,-2732,-160,15916,-121,44,-63
491647958,-2796,-196,15948,-67,163,-69
491651428,-2768,-180,15852,-100,45,-46
491654898,-2820,-228,16084,-46,135,-60
491658368,-2688,-252,16004,-146,142,-87
491661973,-2796,-244,15824,-86,82,-50
491665308,-2832,-224,16032,-79,175,-73
491668778,-2676,-232,15884,-78,62,-56
491672162,-2772,-188,15968,-50,147,-73
491675631,-2808,-144,16112,-117,79,-67
491679101,-2764,-188,16056,-71,109,-42
491682572,-2868,-280,15956,-102,133,-84
491686153,-2836,-260,15920,-97,60,-57
491689511,-2804,-248,16000,-95,165,-40
491692982,-2856,-164,15924,-79,62,-70
491696365,-2828,-200,15908,-58,173,-39
491699835,-2696,-224,15992,-90,27,-63
491703218,-2872,-244,15976,-62,97,-55
491706601,-2804,-220,16040,-133,99,-45
491710094,-2684,-200,15892,-85,60,-78
491713454,-2704,-156,15964,-107,165,-76
491717011,-2860,-152,16032,-103,62,-53
491720516,-2924,-192,16000,-83,152,-69
491723951,-2840,-276,15972,-97,61,-67
491727334,-2856,-240,15896,-57,132,-73
491730804,-2864,-208,15904,-127,63,-93
491734278,-2768,-232,15880,-60,94,-41
491737682,-2824,-324,16020,-133,167,-60
491741215,-2916,-188,16036,-93,31,-61
491744598,-2812,-208,15996,-86,187,-79
491748068,-2772,-184,16008,-102,48,-50
491751538,-2892,-252,16144,-50,132,-52
491755008,-2792,-176,15948,-129,158,-88
491758565,-2700,-216,15916,-62,85,-66
491761996,-2796,-348,15996,-94,178,-56
491765418,-2848,-188,16104,-67,47,-28
491768801,-2784,-204,15940,-69,166,-61
491772271,-2880,-220,15840,-86,61,-57
491775654,-2616,-248,16052,-79,151,-63
491779124,-2828,-168,16012,-108,106,-74
491782681,-2828,-184,16012,-87,59,-57
491786089,-2852,-256,15936,-74,175,-70
491789534,-2788,-232,15796,-84,50,-58
491792918,-2820,-276,16048,-62,151,-30
491796388,-2852,-124,15984,-119,71,-67
491799857,-2800,-228,16056,-75,84,-50
491803241,-2852,-260,15936,-118,143,-53
491806797,-2836,-144,15960,-106,29,-67
491810291,-2844,-216,15932,-103,189,-47
491813824,-2848,-160,15920,-100,36,-61
491817294,-2776,-296,15948,-46,153,-59
491820799,-2768,-240,15828,-121,129,-86
491824321,-2792,-168,16012,-82,87,-44
491827704,-2780,-80,15992,-99,179,-70
491831088,-2840,-244,15932,-86,78,-53
491834474,-2772,-200,16088,-70,169,-67
491837965,-2764,-208,16036,-92,70,-86
491841324,-2768,-244,15980,-60,153,-52
491844794,-2840,-236,15936,-121,79,-94
491848264,-2684,-216,16036,-63,115,-66
491851734,-2780,-288,16052,-102,169,-49
491855291,-2808,-128,15956,-92,55,-59
491858674,-2796,-168,16028,-65,146,-46
491862192,-2880,-276,16020,-105,44,-76
491865614,-2812,-204,15900,-66,110,-36
491869084,-2844,-172,15928,-108,74,-91
491872554,-2752,-380,15928,-58,57,-52
491875937,-2776,-252,15916,-112,151,-76
491879494,-2828,-212,16068,-87,50,-51
491882877,-2748,-116,16008,-95,182,-60
491886372,-2732,-200,16048,-92,42,-71
491889730,-2780,-176,15848,-41,167,-55
491893200,-2736,-160,15896,-136,135,-93
491896757,-2716,-172,15988,-81,78,-41
491900140,-2820,-216,16016,-121,95,-84
491903610,-2780,-228,16036,-90,60,-82
491906994,-2848,-272,15860,-78,151,-57
491910487,-2764,-192,16068,-112,73,-59
491913934,-2800,-220,16052,-55,129,-65
491917404,-2848,-184,16048,-132,126,-85
491920996,-2836,-280,16112,-88,76,-63
491924344,-2840,-172,15948,-109,169,-77
491927901,-2804,-272,15860,-90,40,-50
491931284,-2780,-220,15976,-76,155,-38
491934778,-2808,-232,16048,-77,82,-60
491938137,-2856,-200,15888,-70,87,-50
491941520,-2780,-196,16016,-114,88,-57
491944990,-2780,-224,15924,-73,40,-69
491948373,-2880,-280,15864,-111,180,-29
491951930,-2716,-216,15904,-92,41,-71
491955314,-2900,-120,15904,-52,157,-30
491958784,-2804,-308,16004,-104,66,-79
491962303,-2784,-212,15984,-60,84,-60
491965637,-2708,-264,16108,-91,100,-82
491969107,-2932,-212,15948,-97,40,-39
491972490,-2892,-168,15932,-113,138,-109
491976133,-2684,-280,16024,-86,61,-61
491979517,-2820,-212,16096,-58,165,-69
491982987,-2724,-212,16040,-115,61,-80
491986481,-2860,-272,15928,-66,126,-68
491989927,-2884,-172,15928,-112,148,-59
491993483,-2812,-256,15852,-65,79,-73
491996867,-2708,-188,15860,-83,180,-17
492000337,-2828,-244,16040,-102,64,-83
492003807,-2860,-184,16052,-46,153,-62
492007277,-2680,-140,16000,-114,84,-66
492010770,-2824,-276,15992,-74,104,-56
492014217,-2772,-340,16124,-127,120,-41
492017774,-2868,-192,16044,-86,36,-59
492021192,-2652,-312,16052,-90,196,-27
492024627,-2780,-244,16020,-68,40,-56
492028010,-2744,-136,16072,-54,153,-44
492031480,-2824,-204,16012,-83,58,-61
492034888,-2824,-248,15972,-57,122,-33
492038333,-2856,-252,15956,-126,88,-81
492041803,-2796,-284,16040,-59,62,-67
492045187,-2860,-220,16192,-116,155,-54
492048743,-2832,-224,15944,-98,51,-68
492052127,-2784,-312,15980,-62,156,-53
492055596,-2832,-208,15880,-125,125,-62
492059157,-2792,-244,15908,-57,89,-53
492062639,-2760,-276,16012,-113,164,-75
492066093,-2724,-176,16060,-65,59,-50
492069477,-2868,-220,15836,-69,186,-65
492072947,-2736,-204,16000,-98,45,-29
492076330,-2804,-204,15992,-58,171,-52
492079800,-2848,-228,16000,-127,77,-80
492083270,-2728,-172,16176,-70,112,-69
492086764,-2760,-176,15964,-106,168,-60
492090296,-2776,-200,15924,-71,55,-52
492093680,-2800,-240,15896,-83,155,-55
492097150,-2808,-212,15960,-102,48,-81
492100620,-2824,-228,15888,-62,110,-43
492104090,-2736,-180,16056,-136,125,-58
492107646,-2764,-232,15884,-75,52,-81
492111053,-2788,-252,15980,-121,191,-55
492114587,-2816,-192,16000,-103,53,-43
492118057,-2840,-292,16000,-68,150,-80
492121565,-2812,-164,16056,-108,91,-48
492124996,-2684,-244,15868,-62,136,-73
492128467,-2876,-124,16088,-102,128,-65
492132023,-2860,-204,15940,-71,72,-55
492135431,-2892,-172,15928,-99,168,-53
492138876,-2764,-184,15960,-73,63,-67
492142260,-2800,-116,15900,-78,187,-49
492145730,-2772,-268,16092,-102,32,-69
492149200,-2740,-156,15992,-56,136,-42
492152670,-2960,-248,16004,-106,74,-75
492156140,-2848,-192,16080,-81,50,-40
492159526,-2772,-252,15864,-129,141,-72
492163128,-2808,-220,16116,-113,54,-57
492166550,-2960,-220,15868,-83,174,-48
492170020,-2824,-200,16032,-86,29,-76
492173403,-2840,-204,15940,-73,129,-58
492176873,-2800,-256,16128,-120,77,-84
492180343,-2768,-284,16028,-79,53,-46
492183726,-2784,-200,16024,-94,160,-101
492187307,-2768,-216,16004,-75,50,-71
492190666,-2936,-200,16008,-72,160,-41
492194136,-2812,-336,16096,-107,74,-98
492197606,-2844,-148,15812,-75,119,-46
492201076,-2900,-184,16100,-106,150,-93
492204633,-2912,-276,15920,-78,67,-71
492208016,-2876,-152,15988,-84,181,-66
492211509,-2772,-140,15848,-84,47,-47
492214869,-2868,-224,16024,-84,179,-47
492218340,-2868,-228,15944,-102,60,-76
492221845,-2800,-152,16000,-78,133,-50
492225280,-2720,-260,16076,-119,149,-75
492228836,-2764,-292,15956,-93,35,-45
492232220,-2780,-252,15964,-80,185,-72
492235714,-2756,-208,16060,-98,43,-50
492239073,-2736,-212,16000,-81,149,-73
492242543,-2872,-196,15992,-74,47,-64
492245926,-2812,-128,15960,-67,105,-68
492249396,-2708,-272,15932,-111,101,-56
492252953,-2836,-152,16068,-96,57,-40
492256336,-2832,-224,15952,-104,177,-68
492259941,-2920,-232,15976,-95,48,-91
492263276,-2848,-192,15900,-64,169,-59
492266746,-2852,-192,15788,-121,139,-75
492270303,-2912,-216,15992,-59,92,-70
492273686,-2700,-164,16056,-107,183,-84
492277243,-2856,-216,15840,-91,49,-61
492280626,-2768,-204,15960,-81,176,-61
492284099,-2864,-220,15996,-105,76,-71
492287590,-2820,-200,16052,-48,126,-62
492291036,-2864,-228,15988,-102,67,-48
492294506,-2816,-204,15996,-54,118,-52
492297976,-2796,-120,16044,-120,128,-74
492301533,-2824,-220,15936,-88,56,-61
492304916,-2768,-308,15924,-87,189,-60
492308386,-2880,-280,15928,-87,66,-49
492311792,-2936,-252,16048,-66,159,-67
492315239,-2812,-192,15876,-83,52,-71
492318622,-2900,-224,15968,-76,126,-63
492322128,-2824,-240,16052,-117,101,-94
492325649,-2868,-232,15860,-84,70,-89
492329032,-2716,-276,15912,-90,154,-65
492332502,-2908,-200,16108,-95,66,-53
492335910,-2900,-240,15964,-97,176,-65
492339356,-2796,-196,15912,-105,55,-44
492342826,-2796,-160,15908,-57,116,-66
492346296,-2800,-132,16052,-116,43,-77
492349766,-2744,-208,16064,-75,83,-63
492353149,-2836,-324,15960,-115,102,-37
492356706,-2796,-132,15928,-94,50,-63
492360137,-2832,-256,15856,-94,157,-44
492363559,-2912,-252,16088,-79,40,-78
492366942,-2828,-168,16004,-65,145,-53
492370412,-2860,-184,15956,-128,104,-81
492373969,-2804,-228,15916,-76,83,-84
492377352,-2780,-168,16032,-127,194,-55
492380909,-2760,-160,15916,-74,46,-56
492384296,-2872,-300,15988,-74,169,-33
492387787,-2780,-280,15984,-105,60,-50
492391232,-2780,-148,15972,-83,114,-65
492394702,-2812,-228,15908,-105,99,-47
492398172,-2848,-192,16088,-89,78,-63
492401555,-2868,-256,16032,-112,127,-92
492405112,-2824,-272,15996,-93,67,-54
492408496,-2764,-188,15944,-107,180,-56
492412075,-2760,-156,15936,-89,74,-65
492415435,-2756,-200,15928,-70,180,-60
492418905,-2848,-208,15964,-105,39,-80
492422410,-2868,-220,15960,-70,60,-21
492425759,-2772,-236,15968,-145,117,-57
492429316,-2888,-256,15932,-102,63,-54
492432786,-2876,-232,15960,-112,166,-64
492436367,-2840,-236,15856,-89,61,-86
492439725,-2940,-224,16016,-54,166,-36
492443195,-2784,-216,16020,-95,111,-69
492446665,-2816,-216,15956,-80,111,-61
492450135,-2828,-256,15920,-110,168,-70
492453692,-2780,-232,15876,-91,59,-58
492457075,-2816,-108,16108,-66,135,-52
492460594,-2792,-212,15944,-74,32,-56
492463929,-2784,-220,15940,-68,122,-30
492467399,-2788,-220,15956,-131,93,-66
492470869,-2800,-160,15972,-73,77,-40
492474252,-2832,-156,16112,-102,157,-77
492477809,-2824,-212,15956,-83,70,-47
492481192,-2748,-196,16092,-82,180,-44
492484686,-2756,-228,16036,-94,48,-67
492488045,-2828,-188,15920,-54,142,-37
492491515,-2808,-252,15980,-130,70,-66
492494985,-2748,-320,16076,-75,96,-62
492498368,-2844,-332,15932,-106,98,-74
492501839,-2756,-264,15908,-77,47,-76
492505222,-2748,-200,16112,-114,172,-57
492508778,-2788,-252,16104,-97,65,-52
492512185,-2820,-172,16088,-84,176,-50
492515632,-2888,-232,15940,-104,45,-65
492519102,-2672,-308,15984,-40,98,-77
492522520,-2828,-248,16044,-135,111,-41
492526042,-2848,-256,15996,-84,40,-49
492529425,-2772,-344,16008,-108,189,-38
492532982,-2780,-160,15932,-95,37,-77
492536389,-2744,-308,15956,-54,187,-58
492539835,-2780,-176,16052,-135,90,-78
492543305,-2792,-212,15920,-42,135,-35
492546775,-2836,-204,16044,-108,150,-71
492550332,-2868,-268,16056,-74,57,-53
492553715,-2780,-124,15936,-87,180,-51
492557185,-2824,-176,16136,-100,44,-73
492560716,-2792,-208,16004,-86,130,-69
492564125,-2764,-164,16136,-99,66,-42
492567508,-2760,-184,16048,-83,110,-55
492570978,-2884,-196,16100,-113,104,-60
492574535,-2832,-244,16024,-113,57,-70
492578005,-2792,-200,16004,-103,181,-55
492581562,-2704,-300,15976,-109,76,-75
492585056,-2728,-240,16124,-72,164,-44
492588502,-2812,-204,16072,-122,123,-68
492592059,-2868,-260,15952,-38,89,-67
492595442,-2876,-248,16076,-99,200,-53
492598912,-2724,-204,15964,-80,52,-67
492602295,-2864,-184,15896,-91,157,-70
492605765,-2868,-188,15968,-118,50,-71
492609238,-2692,-176,15932,-61,145,-64
492612728,-2668,-160,15908,-125,147,-61
492616262,-2744,-264,15960,-84,41,-63
492619645,-2812,-176,16012,-98,177,-75
492623150,-2692,-304,15884,-81,35,-48
492626498,-2944,-248,16012,-56,140,-37
492629968,-2812,-352,15888,-100,53,-58
492633438,-2752,-228,15984,-76,121,-93
492636933,-2816,-196,15996,-97,109,-44
492640378,-2780,-156,16080,-90,77,-54
492643761,-2756,-224,16132,-121,138,-98
492647318,-2756,-172,15960,-79,48,-70
492650701,-2776,-248,16140,-69,185,-84
492654171,-2892,-176,15872,-100,48,-47
492657642,-2800,-192,16044,-63,170,-56
492661160,-2764,-176,16024,-114,96,-84
492664582,-2808,-200,15936,-64,113,-53
492668052,-2780,-240,15932,-129,178,-77
492671608,-2788,-228,15932,-74,61,-54
492674992,-2696,-244,15900,-122,170,-83
492678548,-2888,-216,16016,-106,40,-56
492682018,-2852,-216,16068,-75,115,-68
492685513,-2792,-188,15992,-119,71,-41
492688958,-2760,-204,16080,-78,67,-38
492692342,-2792,-196,15968,-125,131,-30
492695898,-2840,-152,15976,-71,74,-82
492699281,-2828,-132,16068,-81,170,-63
492702751,-2676,-308,16036,-90,50,-87
492706135,-2736,-140,15964,-48,122,-34
492709628,-2800,-232,15824,-116,69,-92
492713075,-2836,-156,16028,-60,67,-37
492716458,-2780,-192,15924,-130,114,-81
492720015,-2776,-152,16124,-86,49,-59
492723433,-2900,-212,16012,-84,194,-77
492726868,-2796,-140,16068,-120,60,-74
492730338,-2824,-300,16044,-60,191,-52
492733808,-2836,-216,15936,-118,104,-77
492737389,-2876,-140,15840,-68,106,-44
492740835,-2824,-216,15992,-101,154,-66
492744392,-2768,-204,15964,-61,67,-56
492747775,-2820,-188,16016,-82,173,-52
492751245,-2756,-248,16084,-112,72,-75
492754715,-2804,-216,16000,-57,144,-36
492758185,-2888,-292,15996,-111,73,-72
492761703,-2792,-236,15780,-59,74,-70
492765038,-2800,-176,16076,-116,159,-53
492768595,-2740,-256,16036,-68,77,-58
492771978,-2672,-228,15768,-81,185,-69
492775448,-2852,-244,16132,-86,57,-87
492778831,-2740,-220,15948,-59,143,-56
492782301,-2884,-232,16044,-118,75,-56
492785796,-2824,-240,16100,-54,97,-68
492789154,-2892,-212,15892,-110,120,-92
492792711,-2844,-200,16036,-84,62,-94
492796094,-2800,-256,15860,-109,158,-51
492799651,-2792,-132,15924,-98,46,-83
492803034,-2856,-240,15976,-69,169,-52
492806504,-2856,-216,15936,-123,105,-74
492810084,-2864,-244,15908,-72,127,-45
492813531,-2788,-172,15960,-120,136,-86
492817088,-2768,-244,16052,-74,80,-66
492820471,-2828,-192,15968,-99,204,-80
492823976,-2776,-220,16088,-96,43,-72
492827324,-2752,-328,15840,-92,163,-85
492830795,-2760,-152,16100,-83,39,-68
492834181,-2836,-272,16012,-44,173,-69
492837672,-2824,-180,15972,-138,93,-75
492841118,-2908,-284,16032,-61,126,-31
492844588,-2860,-124,15956,-106,164,-57
492848145,-2792,-256,15964,-73,57,-46
492851528,-2820,-196,16024,-62,198,-76
492854998,-2744,-284,15956,-96,30,-49
492858381,-2756,-260,15912,-35,113,-63
492861899,-2836,-244,15964,-106,71,-52
492865321,-2824,-200,15916,-67,87,-35
492868704,-2844,-164,15964,-99,123,-93
492872174,-2804,-136,15972,-66,95,-48
492875557,-2844,-116,16076,-93,196,-47
492879028,-2880,-316,16052,-101,35,-70
492882497,-2764,-156,16024,-56,133,-41
492885992,-2916,-268,15952,-115,73,-80
492889437,-2884,-128,16024,-70,71,-57
492892826,-2756,-144,16004,-119,133,-89
492896378,-2880,-212,15980,-97,52,-72
492899761,-2744,-228,16120,-62,187,-85
492903231,-2936,-232,16004,-110,54,-80
492906701,-2824,-228,16012,-70,169,-12
492910194,-2680,-212,16156,-131,107,-59
492913728,-2740,-128,15944,-53,109,-56
492917197,-2892,-72,15860,-111,177,-67
492920667,-2796,-304,15912,-86,69,-51
492924086,-2836,-136,16012,-79,192,-57
492927521,-2820,-248,15844,-91,60,-48
492930904,-2888,-204,16020,-55,160,-45
492934378,-2828,-228,16084,-97,91,-82
492937782,-2868,-252,15888,-63,115,-50
492941227,-2816,-256,15968,-111,142,-88
492944784,-2836,-228,15928,-68,63,-55
492948167,-2772,-268,15944,-85,154,-51
492951637,-2924,-204,15960,-85,39,-92
492955020,-2860,-220,15896,-57,141,-41
492958490,-2764,-204,15904,-99,71,-66
492961923,-2912,-240,15980,-77,98,-74
492965257,-2708,-148,15924,-81,105,-75
492968727,-2716,-284,16052,-87,90,-57
492972110,-2832,-236,16024,-72,150,-56
492975580,-2784,-320,15924,-100,86,-69
492979050,-2788,-144,15996,-71,148,-58
492982520,-2760,-260,15868,-97,65,-52
492985928,-2804,-184,15860,-53,118,-73
492989374,-2844,-164,16000,-109,73,-99
492992844,-2744,-228,15792,-82,77,-45
492996227,-2804,-144,16076,-109,143,-98
492999784,-2944,-164,15984,-90,41,-67
493003167,-2804,-148,16012,-77,161,-53
493006637,-2876,-188,16032,-101,62,-83
493010130,-2888,-276,16052,-50,140,-61
493013577,-2792,-248,16048,-110,107,-73
493017133,-2800,-236,15976,-88,97,-35
493020517,-2848,-276,16032,-136,116,-69
493024112,-2816,-180,15984,-93,68,-45
493027457,-2804,-292,16004,-110,168,-86
493031014,-2728,-128,16040,-97,86,-80
493034400,-2780,-344,15940,-53,129,-51
493037891,-2804,-260,16000,-100,149,-48
493041424,-2752,-168,15796,-92,58,-55
493044807,-2768,-244,15860,-62,182,-21
493048277,-2820,-176,15860,-77,56,-76
493051660,-2836,-200,15920,-64,154,-43
493055130,-2804,-164,16040,-106,56,-87
493058600,-2804,-168,15968,-59,75,-37
493062085,-2892,-152,16044,-137,121,-59
493065540,-2868,-172,15892,-89,69,-56
493068923,-2780,-236,15828,-90,186,-46
493072393,-2760,-268,15888,-107,40,-82
493075863,-2836,-204,15948,-69,173,-60
493079333,-2816,-204,15972,-117,81,-72
493082803,-2764,-240,15944,-55,118,-51
493086298,-2800,-224,15996,-119,99,-75
493089743,-2772,-372,16000,-89,58,-72
493093126,-2868,-176,16040,-118,175,-56
493096683,-2796,-200,15892,-97,72,-65
493100067,-2796,-200,15980,-69,147,-48
493103536,-2752,-204,15912,-137,105,-40
493107093,-2792,-200,16036,-67,98,-62
493110500,-2872,-212,15896,-112,147,-75
493114033,-2740,-176,15916,-87,47,-37
493117416,-2820,-168,16128,-79,168,-56
493120886,-2792,-244,16000,-110,54,-51
493124395,-2872,-188,16000,-82,119,-42
493127827,-2760,-256,15980,-102,80,-60
493131296,-2808,-232,15988,-56,82,-29
493134704,-2780,-256,16064,-118,165,-54
493138236,-2740,-220,16116,-89,67,-80
493141620,-2784,-192,15992,-91,153,-34
493145090,-2684,-196,15984,-104,124,-102
493148733,-2916,-196,15956,-66,112,-58
493152203,-2812,-276,16000,-101,130,-72
493155760,-2844,-264,15948,-86,77,-79
493159147,-2740,-260,15848,-92,166,-55
493162662,-2760,-160,16000,-85,49,-71
493165996,-2868,-212,16052,-63,133,-76
493169467,-2760,-156,16028,-118,57,-79
493172937,-2808,-196,15972,-67,152,-81
493176406,-2804,-240,15880,-120,163,-70
493179963,-2828,-256,15960,-78,47,-73
493183347,-2816,-172,16040,-111,171,-67
493186928,-2800,-220,15992,-103,53,-49
493190373,-2792,-204,15960,-55,155,-69
493193843,-2836,-184,16004,-115,48,-86
493197313,-2860,-256,15896,-61,95,-74
493200696,-2784,-236,16020,-132,117,-91
493204253,-2800,-212,15768,-78,73,-46
493207637,-2748,-188,15996,-90,182,-69
493211130,-2812,-220,15916,-99,38,-46
493214490,-2744,-164,15860,-83,168,-41
493217960,-2748,-208,15948,-106,109,-72
493221517,-2800,-232,15948,-54,95,-55
493224935,-2768,-252,15836,-90,176,-69
493228370,-2812,-188,15884,-101,70,-66
493231840,-2784,-204,16212,-62,156,-54
493235334,-2760,-164,16000,-112,64,-74
493238780,-2772,-204,15980,-78,96,-40
493242163,-2800,-260,15936,-129,93,-79
493245633,-2908,-212,15920,-62,104,-60
493249103,-2800,-260,15980,-114,179,-63
493252660,-2832,-200,15860,-94,50,-56
493256043,-2764,-264,15976,-84,148,-55
493259565,-2740,-204,15976,-88,49,-59
493262896,-2796,-308,16048,-59,95,-75
493266280,-2760,-232,15980,-126,120,-95
493269836,-2816,-316,15836,-87,30,-57
493273220,-2828,-136,15960,-93,162,-55
493276690,-2728,-220,15908,-99,41,-70
493280073,-2880,-248,15968,-78,179,-55
493283543,-2836,-272,16064,-109,76,-78
493287037,-2728,-124,16116,-74,140,-41
493290483,-2696,-176,15948,-116,150,-98
493294040,-2872,-276,15928,-59,73,-78
493297423,-2792,-224,16028,-109,156,-68
493300980,-2824,-272,16064,-85,51,-94
493304363,-2840,-172,16060,-93,198,-64
493307833,-2804,-228,16032,-91,76,-80
493311239,-2824,-196,16136,-73,131,-70
493314686,-2852,-156,15980,-114,133,-76
493318243,-2868,-200,15992,-77,87,-51
493321626,-2852,-252,15964,-75,170,-48
493325131,-2708,-148,16108,-90,66,-70
493328479,-2752,-184,15960,-60,123,-58
493331949,-2896,-196,16092,-118,93,-68
493335444,-2820,-192,15984,-64,61,-32
493338802,-2732,-248,15992,-132,110,-36
493342359,-2852,-248,16032,-75,73,-76
493345742,-2820,-156,15976,-108,180,-56
493349299,-2736,-292,15992,-103,59,-89
493352769,-2788,-180,15864,-61,173,-32
493356239,-2796,-228,16024,-110,101,-83
493359844,-2860,-188,15944,-37,117,-40
493363266,-2756,-240,15868,-94,159,-81
493366736,-2780,-192,15952,-80,43,-52
493370119,-2824,-312,15980,-81,206,-80
493373589,-2704,-212,15892,-97,52,-86
493376973,-2844,-260,16016,-61,138,-44
493380443,-2740,-216,15968,-102,171,-70
493383999,-2900,-260,16068,-104,83,-44
493387494,-2736,-204,15944,-71,156,-49
493390939,-2816,-228,15980,-102,34,-76
493394409,-2848,-172,15980,-61,108,-49
493397879,-2900,-172,16012,-115,101,-49
493401436,-2828,-192,15960,-90,54,-58
493404819,-2796,-152,15936,-119,159,-76
493408376,-2708,-132,15796,-105,46,-63
493411869,-2916,-196,15964,-75,180,-62
493415316,-2756,-244,15872,-104,96,-100
493418873,-2844,-284,15860,-47,111,-57
493422343,-2828,-252,15992,-133,158,-58
493425935,-2876,-336,15696,-79,47,-76
493429283,-2824,-244,15976,-64,199,-63
493432753,-2804,-272,15888,-86,70,-55
493436161,-2928,-288,16048,-77,157,-58
493439606,-2872,-220,16056,-96,30,-73
493442989,-2848,-180,15948,-59,90,-53
493446373,-2804,-204,16044,-122,152,-47
493449929,-2892,-296,15916,-91,56,-46
493453313,-2700,-200,15968,-80,184,-63
493456782,-2804,-124,15888,-98,48,-83
493460214,-2724,-168,16104,-59,148,-40
493463636,-2900,-240,15872,-98,67,-48
493467019,-2816,-268,15980,-74,110,-66
493470489,-2796,-240,16048,-123,115,-60
493474046,-2812,-160,15924,-81,40,-66
493477429,-2748,-104,15840,-94,138,-87
493480899,-2708,-220,16072,-102,54,-62
493484372,-2864,-272,15976,-79,151,-53
493487864,-2804,-216,15928,-117,93,-52
493491309,-2872,-196,16068,-54,115,-49
493494779,-2856,-208,15924,-119,190,-61
493498336,-2904,-272,16056,-72,84,-64
493501719,-2936,-244,15984,-90,168,-65
493505189,-2800,-192,15876,-95,42,-59
493508572,-2740,-160,16064,-72,212,-55
493512065,-2976,-108,15984,-104,41,-75
493515512,-2712,-224,15900,-53,167,-41
493518982,-2892,-292,16088,-123,114,-73
493522539,-2692,-192,16068,-66,131,-51
493526044,-2816,-232,16048,-102,204,-69
493529566,-2832,-260,16116,-107,40,-69
493533036,-2824,-212,15988,-100,169,-54
493536617,-2832,-180,15964,-111,61,-81
493540062,-2856,-172,16036,-69,127,-20
493543533,-2704,-220,16148,-121,128,-72
493547089,-2864,-224,16000,-81,90,-69
493550472,-2780,-320,16092,-95,202,-76
493553942,-2856,-264,16088,-71,31,-76
493557326,-2848,-212,16032,-103,160,-56
493560943,-2744,-124,15936,-119,55,-66
493564352,-2720,-284,15992,-39,142,-65
493567822,-2740,-328,16084,-127,132,-74
493571379,-2788,-176,16132,-92,67,-72
493574763,-2800,-208,15844,-91,178,-53
493578233,-2800,-212,16116,-86,71,-67
493581616,-2868,-204,15952,-62,175,-69
493585110,-2792,-276,16056,-111,41,-73
493588556,-2900,-244,16012,-66,95,-70
493591939,-2760,-244,16188,-100,94,-38
493595409,-2756,-196,16000,-80,63,-62
493598792,-2744,-208,15956,-71,158,-79
493602262,-2824,-256,15936,-95,44,-71
493605645,-2864,-204,15924,-84,182,-54
493609119,-2924,-240,15948,-117,55,-52
493612609,-2840,-296,15844,-57,148,-69
493616056,-2804,-148,15968,-94,57,-57
493619439,-2880,-268,15828,-76,108,-70
493622909,-2716,-244,16000,-125,129,-75
493626501,-2856,-164,15844,-93,53,-57
493629849,-2844,-132,15948,-94,193,-46
493633319,-2852,-184,15868,-102,35,-56
493636813,-2848,-240,15916,-60,172,-87
493640259,-2812,-232,15940,-120,137,-48
493643816,-2896,-260,15924,-88,87,-58
493647199,-2860,-232,15860,-89,193,-91
493650669,-2840,-280,16044,-96,66,-81
493654052,-2756,-256,15996,-70,152,-56
493657522,-2896,-168,15896,-87,49,-57
493660954,-2784,-196,15932,-65,184,-59
493664375,-2832,-172,15944,-126,94,-80
493667845,-2816,-228,16216,-73,93,-41
493671228,-2772,-180,15972,-124,154,-81
493674785,-2740,-188,16032,-66,60,-61
493678168,-2832,-208,15736,-66,167,-64
493681638,-2836,-316,15980,-95,53,-44
493685046,-2716,-232,16036,-55,120,-35
493688492,-2856,-268,15980,-92,56,-74
493691875,-2768,-192,15996,-62,111,-22
493695345,-2832,-188,15976,-134,156,-62
493698902,-2812,-124,16000,-82,41,-82
493702285,-2824,-172,15924,-93,178,-46
493705755,-2776,-144,15980,-96,23,-74
493709142,-2804,-204,15912,-60,158,-58
493712631,-2792,-264,16000,-99,62,-75
493715992,-2716,-92,15868,-46,100,-92
493719375,-2880,-176,16020,-110,116,-55
493722932,-2840,-216,16100,-97,62,-66
493726318,-2844,-224,15900,-81,180,-54
493729820,-2700,-108,15964,-115,46,-61
493733255,-2812,-112,15916,-50,164,-64
493736749,-2788,-220,15916,-123,105,-56
493740282,-2720,-212,16016,-52,115,-74
493743751,-2860,-248,16000,-86,181,-62
493747222,-2852,-340,15840,-82,69,-46
493750605,-2776,-276,16056,-119,140,-72
493754161,-2872,-244,16064,-82,62,-46
493757545,-2836,-172,15896,-92,166,-51
493761063,-2816,-196,16056,-98,100,-71
493764485,-2796,-184,15828,-61,150,-65
493767955,-2836,-108,15932,-104,126,-43
493771511,-2756,-196,15948,-79,76,-74
493774895,-2816,-200,16004,-85,186,-54
493778365,-2768,-228,16044,-87,46,-56
493781748,-2856,-200,16056,-63,145,-23
493785242,-2808,-240,15936,-83,82,-57
493788601,-2832,-192,15912,-85,76,-61
493791984,-2796,-256,15972,-108,128,-104
493795628,-2800,-220,15956,-89,53,-18
493799011,-2896,-148,16076,-89,188,-68
493802481,-2912,-216,15932,-97,58,-50
493805865,-2800,-180,15940,-83,150,-58
493809338,-2788,-128,15904,-98,39,-58
493812741,-2808,-220,16060,-60,88,-56
493816101,-2772,-204,16080,-116,130,-71
493819658,-2828,-124,16064,-74,69,-67
493823041,-2800,-240,16072,-86,180,-55
493826511,-2832,-292,15940,-97,58,-70
493829929,-2804,-200,15976,-54,154,-57
493833364,-2880,-316,15936,-120,106,-39
493836945,-2816,-284,15860,-69,97,-64
493840304,-2876,-216,16024,-100,171,-76
493843861,-2876,-156,15912,-90,68,-32
493847244,-2888,-208,15992,-117,158,-53
493850801,-2912,-156,15956,-96,53,-75
493854184,-2764,-220,16100,-52,155,-46
493857654,-2796,-216,15952,-102,94,-65
493861173,-2792,-156,15924,-75,96,-84
493864508,-2760,-272,15928,-126,171,-77
493868064,-2872,-284,16020,-77,65,-60
493871447,-2800,-172,15960,-67,174,-45
493874917,-2900,-176,15960,-98,59,-79
493878301,-2868,-196,15900,-56,135,-37
493881771,-2764,-192,15908,-91,45,-68
493885179,-2912,-156,16032,-42,106,-56
493888624,-2832,-192,16024,-131,137,-55
493892181,-2720,-236,15872,-79,31,-60
493895564,-2828,-280,16056,-69,172,-48
493899034,-2748,-208,15952,-104,68,-71
493902504,-2680,-140,15904,-76,146,-64
493905974,-2900,-244,15988,-93,58,-58
493909361,-2784,-208,15928,-64,102,-48
493912850,-2816,-152,16076,-109,138,-94
493916384,-2764,-240,15968,-97,41,-44
493919767,-2900,-192,16044,-93,185,-74
493923237,-2852,-168,16088,-105,57,-57
493926707,-2600,-204,16024,-77,159,-62
493930212,-2812,-132,15996,-108,111,-80
493933734,-2732,-228,15900,-60,107,-86
493937229,-2816,-200,15928,-107,183,-54
493940761,-2856,-240,15872,-99,41,-41
493944144,-2888,-232,15932,-62,142,-48
493947614,-2772,-116,15972,-122,63,-59
493951084,-2748,-264,15956,-66,97,-64
493954467,-2844,-252,15912,-92,78,-62
493957851,-2752,-264,15924,-81,50,-91
493961283,-2804,-120,16028,-116,177,-55
493964790,-2824,-172,16152,-110,59,-83
493968261,-2904,-192,15940,-91,157,-53
493971731,-2740,-228,15900,-100,49,-66
493975201,-2808,-260,15976,-41,77,-21
493978584,-2760,-196,15908,-118,107,-84
493982140,-2764,-284,15960,-86,73,-45
493985548,-2892,-228,16060,-114,177,-75
493989081,-2760,-240,16012,-114,39,-53
493992550,-2704,-244,15996,-56,174,-41
493996021,-2848,-124,15960,-123,97,-71
493999491,-2868,-196,16016,-44,109,-28
494002960,-2908,-176,16076,-98,141,-53
494006430,-2776,-212,16120,-101,77,-42
494009924,-2864,-216,15876,-72,143,-56
494013371,-2684,-196,16076,-70,31,-54
494016754,-2880,-200,16072,-56,142,-40
494020224,-2832,-104,16144,-99,70,-72
494023607,-2824,-200,15976,-65,71,-59
494026990,-2804,-252,15944,-116,145,-54
494030582,-2772,-148,15872,-87,58,-63
494033930,-2964,-252,16120,-91,168,-62
494037425,-2812,-196,15860,-97,70,-56
494040784,-2696,-308,15956,-48,144,-56
494044254,-2804,-164,16032,-91,61,-91
494047637,-2740,-192,16072,-84,76,-74
494051020,-2752,-156,16044,-115,102,-96
494054577,-2908,-192,15948,-76,47,-83
494057960,-2784,-304,16008,-103,160,-73
494061619,-2864,-188,15884,-95,50,-55
494064900,-2852,-216,15948,-54,137,-64
494068370,-2716,-116,15936,-100,125,-53
494071927,-2820,-216,15912,-52,75,-76
494075310,-2852,-156,16016,-78,167,-29
494078780,-2704,-208,15896,-97,48,-89
494082163,-2900,-168,15956,-94,168,-55
494085658,-2808,-160,15972,-101,49,-55
494089103,-2820,-232,15936,-58,146,-61
494092573,-2724,-192,16132,-131,130,-69
494096130,-2780,-220,16088,-84,91,-64
494099513,-2832,-276,15940,-93,183,-48
494102983,-2808,-164,16044,-90,56,-42
494106367,-2804,-164,15976,-68,181,-31
494109860,-2736,-240,15980,-85,53,-63
494113220,-2864,-160,15840,-65,105,-64
494116690,-2848,-164,15840,-88,97,-109
494120160,-2856,-308,15988,-84,71,-71
494123543,-2764,-164,16024,-96,132,-84
494127013,-2836,-192,16028,-87,72,-54
494130400,-2752,-220,15972,-77,168,-50
494133905,-2812,-204,16028,-105,37,-55
494137361,-2748,-132,16064,-44,156,-56
494140806,-2852,-224,15976,-97,38,-52
494144190,-2828,-284,15844,-50,105,-74
494147659,-2724,-124,16032,-123,89,-81
494151129,-2860,-148,15984,-102,86,-49
494154599,-2776,-188,15940,-96,136,-65
494158069,-2772,-260,15896,-92,58,-80
494161501,-2800,-156,15908,-96,186,-50
494164923,-2876,-184,15816,-99,61,-59
494168306,-2756,-248,16032,-56,137,-65
494171776,-2788,-208,16016,-103,60,-65
494175246,-2792,-220,16032,-89,67,-58
494178629,-2804,-168,16096,-115,132,-80
494182186,-2764,-148,15944,-81,67,-52
494185594,-2836,-204,15996,-114,159,-83
494189126,-2776,-172,15984,-84,65,-75
494192509,-2720,-208,16036,-77,131,-49
494195979,-2896,-240,16000,-119,132,-50
494199536,-2852,-148,15948,-82,91,-41
494202919,-2884,-164,16124,-86,174,-78
494206389,-2812,-292,15944,-82,57,-44
494209796,-2748,-220,16040,-64,157,-55
494213242,-2836,-240,16152,-88,78,-67
494216626,-2768,-228,15952,-59,167,-53
494220096,-2816,-136,15788,-112,94,-55
494223566,-2752,-260,15952,-66,107,-78
494227036,-2780,-204,16024,-114,175,-70
494230593,-2776,-176,16072,-69,63,-38
494234014,-2824,-128,15980,-76,169,-58
494237470,-2876,-224,16012,-102,57,-56
494240916,-2848,-296,15952,-52,118,-56
494244386,-2780,-128,16056,-104,61,-64
494247856,-2844,-292,16104,-75,72,-44
494251239,-2924,-288,15920,-122,128,-82
494254796,-2832,-248,15920,-109,45,-55
494258266,-2784,-240,15836,-80,183,-45
494261784,-2748,-288,16168,-85,26,-91
494265119,-2800,-168,15996,-73,163,-60
494268589,-2720,-220,16076,-136,102,-75
494272146,-2872,-144,15820,-64,82,-27
494275529,-2796,-192,16028,-95,159,-79
494278999,-2856,-256,15956,-85,74,-58
494282382,-2888,-288,16084,-117,172,-91
494285964,-2844,-304,15892,-82,46,-60
494289322,-2844,-240,15896,-61,178,-91
494292792,-2784,-288,15936,-132,73,-55
494296262,-2940,-232,15988,-75,126,-68
494299732,-2816,-240,16136,-103,165,-54
494303289,-2828,-208,15904,-95,58,-57
494306672,-2796,-184,16040,-83,160,-56
494310165,-2900,-248,16068,-82,77,-67
494313526,-2944,-232,16132,-61,125,-82
494316995,-2744,-220,16020,-130,100,-90
494320552,-2812,-212,16104,-86,52,-53
494323936,-2820,-228,16020,-134,135,-73
494327492,-2804,-112,15848,-86,17,-85
494330876,-2796,-200,16132,-78,199,-44
494334381,-2780,-204,15924,-94,68,-71
494337753,-2740,-288,16036,-53,160,-41
494341199,-2876,-184,15988,-92,76,-93
494344582,-2848,-308,16036,-62,99,-57
494347965,-2804,-192,15904,-116,104,-75
494351522,-2704,-232,16000,-75,42,-61
494354905,-2800,-172,16092,-119,177,-58
494358462,-2836,-148,16036,-71,36,-64
494361894,-2880,-148,15964,-95,169,-65
494365315,-2812,-204,15928,-101,90,-82
494368785,-2896,-188,16120,-43,150,-64
494372255,-2772,-184,15968,-100,116,-78
494375812,-2768,-236,16060,-60,110,-52
494379282,-2836,-200,15964,-113,192,-42
494382839,-2864,-208,16056,-61,65,-46
494386247,-2780,-204,15984,-86,166,-55
494389692,-2772,-244,15832,-88,41,-43
494393075,-2724,-176,16004,-65,103,-37
494396545,-2812,-228,16140,-78,103,-45
494400015,-2732,-224,16000,-51,61,-59
494403399,-2788,-284,15904,-114,141,-76
494406955,-2796,-284,16076,-93,65,-47
494410362,-2836,-184,16004,-100,167,-60
494413895,-2836,-272,16008,-82,66,-65
494417279,-2816,-276,15972,-61,162,-76
494420748,-2844,-280,16004,-116,52,-25
494424218,-2852,-220,15992,-68,91,-60
494427602,-2824,-228,16016,-100,84,-81
494431072,-2836,-184,15968,-86,59,-76
494434498,-2740,-188,15872,-115,171,-82
494438012,-2756,-240,16088,-98,48,-73
494441395,-2784,-188,15968,-72,173,-54
494444865,-2884,-256,16024,-103,87,-62
494448335,-2752,-176,15960,-52,127,-63
494451805,-2780,-272,16068,-124,160,-58
494455362,-2828,-168,16028,-61,88,-56
494458745,-2760,-260,15924,-112,187,-72
494462350,-2828,-188,16040,-101,37,-67
494465772,-2820,-216,15912,-53,133,-49
494469242,-2904,-232,15852,-87,67,-65
494472625,-2756,-196,16044,-73,120,-35
494476095,-2812,-184,16060,-108,102,-79
494479652,-2820,-188,16076,-83,47,-53
494483035,-2852,-160,15960,-122,155,-47
494486616,-2788,-236,16072,-104,38,-65
494490062,-2896,-260,16040,-90,159,-48
494493536,-2812,-236,15956,-88,53,-78
494496915,-2836,-200,15960,-38,115,-56
494500385,-2804,-132,16048,-127,58,-60
494503855,-2800,-148,16012,-70,91,-61
494507238,-2856,-248,15932,-107,124,-39
494510820,-2776,-204,15980,-86,66,-47
494514178,-2804,-184,15940,-81,178,-89
494517648,-2684,-172,16052,-83,62,-79
494521032,-2916,-168,16008,-48,158,-41
494524502,-2792,-280,15876,-114,113,-86
494528058,-2820,-232,16000,-84,112,-58
494531528,-2848,-184,15968,-117,149,-54
494535127,-2868,-128,15888,-85,76,-48
494538468,-2860,-188,16044,-80,170,-58
494541938,-2868,-232,15932,-62,25,-58
494545321,-2900,-212,15964,-67,160,-56
494548792,-2892,-240,15896,-114,82,-46
494552262,-2740,-196,16016,-58,116,-88
494555731,-2836,-332,15936,-124,172,-75
494559292,-2832,-232,15944,-76,71,-50
494562732,-2820,-252,15912,-55,176,-65
494566142,-2692,-192,15968,-90,38,-70
494569525,-2764,-352,15980,-51,128,-52
494572995,-2788,-220,15996,-107,50,-72
494576465,-2732,-244,15832,-66,93,-51
494579848,-2764,-240,15984,-121,90,-70
494583318,-2776,-136,15848,-99,77,-90
494586726,-2780,-240,16044,-111,153,-64
494590258,-2840,-124,16032,-102,69,-86
494593728,-2768,-296,15940,-54,168,-67
494597198,-2812,-252,15932,-111,95,-76
494600668,-2744,-304,15936,-73,116,-51
494604138,-2948,-200,15980,-113,146,-88
494607695,-2816,-228,16044,-93,58,-65
494611102,-2832,-248,15888,-79,179,-45
494614548,-2896,-268,16084,-90,49,-66
494617931,-2784,-168,15944,-80,196,-53
494621401,-2672,-224,15988,-106,75,-82
494624871,-2596,-240,15892,-58,136,-49
494628341,-2784,-104,15920,-123,122,-76
494631898,-2792,-124,15912,-89,92,-71
494635323,-2816,-348,16056,-99,164,-85
494638751,-2856,-176,15892,-95,39,-63
494642134,-2840,-120,16048,-75,168,-50
494645605,-2792,-148,15968,-86,68,-68
494648988,-2884,-220,15988,-63,96,-60
494652371,-2848,-268,16024,-112,103,-60
494655928,-2728,-176,15956,-86,48,-50
494659314,-2740,-220,15868,-96,143,-56
494662829,-2868,-188,16052,-80,74,-59
494666164,-2868,-160,15924,-93,182,-58
494669634,-2780,-124,16008,-87,64,-88
494673017,-2828,-308,16072,-61,143,-59
494676487,-2916,-148,15980,-104,59,-45
494679957,-2812,-192,15976,-72,89,-65
494683341,-2812,-100,15988,-149,143,-51
494686922,-2908,-176,16004,-95,81,-64
494690281,-2704,-252,16048,-94,161,-83
494693751,-2956,-148,16100,-104,60,-86
494697221,-2900,-268,15800,-62,164,-84
494700691,-2728,-164,15972,-95,73,-62
494704074,-2844,-260,15988,-72,93,-56
494707457,-2800,-224,15936,-123,127,-57
494711039,-2832,-188,15916,-76,59,-89
494714397,-2832,-172,16132,-106,174,-64
494717954,-2832,-340,15948,-111,65,-67
494721424,-2772,-188,15916,-87,148,-55
494724894,-2848,-160,15968,-131,126,-105
494728537,-2896,-240,16056,-85,78,-62
494731921,-2776,-312,15876,-87,191,-66
494735432,-2808,-204,15812,-102,60,-54
494738861,-2748,-260,15888,-58,154,-46
494742331,-2820,-244,15984,-123,58,-52
494745801,-2852,-160,16084,-94,87,-77
494749184,-2780,-204,15972,-110,106,-80
494752741,-2812,-200,15936,-70,54,-76
494756124,-2796,-140,16024,-86,162,-64
494759642,-2824,-144,15980,-102,48,-76
494763064,-2736,-284,15944,-55,132,-57
494766534,-2836,-188,15992,-126,109,-71
494770091,-2808,-256,15956,-80,116,-56
494773561,-2804,-320,15912,-94,189,-78
494777031,-2884,-216,15976,-81,52,-76
494780414,-2892,-280,15972,-58,155,-31
494783884,-2812,-308,15976,-115,46,-78
494787379,-2840,-252,16012,-55,113,-64
494790824,-2756,-204,16028,-97,83,-67
494794207,-2820,-244,15900,-43,121,-29
494797677,-2844,-152,16024,-109,155,-59
494801234,-2816,-172,16008,-69,85,-69
494804617,-2756,-156,15932,-67,187,-76
494808087,-2732,-192,15888,-89,43,-69
494811495,-2764,-356,15944,-36,111,-60
494814940,-2740,-156,16076,-128,87,-80
494818410,-2764,-276,16032,-86,69,-58
494821794,-2708,-200,16096,-102,164,-80
494825350,-2932,-216,15972,-93,46,-56
494828734,-2724,-140,16144,-81,164,-54
494832204,-2828,-180,15960,-99,62,-63
494835629,-2732,-148,15912,-57,143,-35
494839057,-2748,-240,15992,-107,68,-58
494842527,-2872,-164,15944,-73,70,-66
494845910,-2844,-260,15896,-109,149,-85
494849467,-2748,-192,15896,-57,58,-45
494852850,-2892,-136,16012,-128,167,-81
494856407,-2796,-228,15916,-98,60,-97
494859839,-2840,-224,16024,-54,144,-52
494863260,-2808,-236,15976,-123,100,-80
494866817,-2868,-208,15968,-63,85,-73
494870200,-2812,-312,15860,-94,186,-53
494873670,-2768,-92,16036,-96,64,-61
494876967,-2828,-168,15880,-102,154,-55
494880524,-2792,-176,15968,-118,50,-58
494883997,-2800,-180,16080,-63,125,-62
494887488,-2728,-192,15984,-130,79,-65
494890933,-2800,-220,15980,-98,85,-78
494894317,-2844,-176,15928,-129,166,-65
494897873,-2828,-160,16056,-58,60,-74
494901257,-2736,-196,15996,-104,174,-86
494904813,-2760,-280,15944,-94,66,-39
494908197,-2908,-212,15916,-56,149,-29
494911691,-2856,-216,16076,-94,52,-71
494915050,-2768,-180,15928,-68,92,-59
494918433,-2820,-208,16040,-102,92,-81
494921903,-2896,-236,16124,-85,73,-66
494925287,-2728,-180,16036,-122,150,-69
494928843,-2872,-196,15796,-81,72,-49
494932226,-2880,-276,15936,-67,186,-53
494935738,-2688,-216,15848,-105,33,-88
494939167,-2744,-268,15844,-43,131,-37
494942637,-2832,-276,16024,-124,83,-64
494946106,-2824,-252,16024,-88,56,-62
494949490,-2836,-148,15940,-98,168,-71
494952960,-2808,-204,15932,-93,42,-74
494956343,-2824,-268,15980,-87,188,-60
494959862,-2756,-252,16020,-98,94,-62
494963196,-2756,-244,15924,-50,143,-46
494966666,-2832,-308,15924,-135,149,-75
494970223,-2856,-188,16124,-54,62,-66
494973606,-2724,-204,15956,-102,173,-45
494977163,-2708,-212,16084,-67,71,-74
494980546,-2832,-256,16100,-111,165,-76
494984107,-2872,-268,15980,-103,72,-42
494987598,-2808,-216,16036,-64,85,-63
494990956,-2844,-232,16068,-140,126,-92
494994513,-2800,-100,15964,-89,76,-39
494997896,-2812,-264,16012,-107,183,-44
495001453,-2848,-180,16012,-80,74,-69
495004836,-2804,-232,16064,-64,169,-23
495008306,-2824,-288,15968,-106,34,-63
495011801,-2804,-220,15824,-62,115,-67
495015246,-2720,-224,16128,-129,87,-65
495018716,-2812,-296,16020,-85,64,-56
495022099,-2868,-220,15928,-107,187,-60
495025656,-2772,-200,15908,-104,64,-51
495029126,-2844,-228,16116,-68,180,-48
495032596,-2792,-220,15964,-98,80,-62
495036021,-3024,-196,15928,-67,137,-53
495039449,-2744,-200,15936,-104,148,-61
495043006,-2780,-224,15872,-80,82,-54
495046390,-2792,-188,15960,-92,184,-79
495049860,-2780,-184,16052,-86,41,-89
495053243,-2780,-220,16068,-95,163,-51
495056713,-2852,-248,16104,-86,58,-76
495060198,-2704,-296,16044,-63,173,-38
495063566,-2780,-172,15904,-112,111,-54
495067123,-2800,-156,16024,-63,104,-40
495070593,-2784,-164,16056,-118,156,-61
495074149,-2892,-200,16012,-75,65,-53
495077533,-2924,-280,15968,-69,182,-38
495081003,-2772,-148,16012,-97,67,-60
495084390,-2764,-200,16148,-51,152,-64
495087880,-2780,-212,16000,-117,68,-62
495091326,-2800,-200,15892,-83,93,-57
495094709,-2800,-236,15980,-99,141,-43
495098179,-2760,-124,15956,-99,27,-60
495101562,-2840,-248,15968,-116,161,-63
495105119,-2804,-216,15900,-97,47,-86
495108503,-2948,-252,15996,-73,157,-72
495111997,-2876,-216,16120,-105,63,-59
495115442,-2844,-288,16004,-64,132,-56
495118913,-2836,-188,15936,-133,70,-66
495122382,-2780,-160,15948,-89,57,-68
495125766,-2860,-216,15880,-124,152,-67
495129322,-2804,-220,15868,-94,40,-80
495132706,-2820,-176,15860,-69,178,-65
495136221,-2856,-196,15932,-90,64,-58
495139559,-2944,-308,15980,-56,148,-78
495143029,-2836,-296,16216,-117,126,-65
495146586,-2752,-292,15904,-64,114,-40
495150056,-2760,-184,15968,-106,160,-58
495153612,-2828,-336,16000,-75,66,-73
495156996,-2856,-200,15924,-74,171,-45
495160514,-2864,-124,15904,-87,47,-67
495163849,-2808,-140,16020,-79,129,-60
495167319,-2744,-196,15996,-112,67,-68
495170789,-2792,-188,15984,-93,72,-85
495174172,-2684,-200,15928,-123,159,-21
495177729,-2796,-204,15860,-72,85,-83
495181112,-2852,-224,16004,-83,180,-57
495184607,-2764,-268,15868,-109,30,-56
495188052,-2844,-336,16068,-63,135,-74
495191522,-2852,-192,16020,-110,65,-82
495194992,-2792,-220,15968,-95,80,-51
495198376,-2804,-252,15880,-125,141,-72
495201932,-2836,-212,16000,-83,62,-63
495205315,-2820,-240,15840,-91,165,-80
495208786,-2800,-196,15892,-105,63,-65
495212280,-2720,-188,15896,-57,174,-60
495215725,-2772,-224,15924,-133,132,-73
495219282,-2804,-204,15932,-53,94,-45
495222666,-2684,-216,15928,-88,160,-77
495226135,-2912,-188,16080,-93,68,-82
495229519,-2740,-240,15972,-94,166,-36
495232989,-2788,-152,15968,-104,62,-92
495236500,-2992,-248,16016,-67,145,-53
495239929,-2796,-176,15812,-127,130,-82
495243485,-2696,-216,15980,-69,93,-55
495246869,-2876,-208,16052,-105,161,-100
495250512,-2684,-200,15940,-102,69,-89
495253982,-2756,-232,15944,-69,166,-60
495257452,-2884,-172,16004,-137,128,-84
495261057,-2832,-260,16064,-60,99,-58
495264392,-2864,-244,15928,-104,99,-65
495267862,-2832,-268,16184,-78,52,-39
495271246,-2812,-180,15864,-94,175,-71
495274716,-2848,-144,15980,-97,48,-66
495278099,-2748,-232,15968,-72,180,-68
495281569,-2768,-316,15964,-95,55,-67
495284977,-2836,-112,16128,-46,139,-77
495288422,-2840,-228,15860,-109,124,-78
495291979,-2744,-172,16156,-59,89,-54
495295362,-2732,-240,16032,-101,185,-48
495298919,-2784,-156,16004,-79,66,-62
495302302,-2960,-216,15984,-51,176,-30
495305772,-2820,-244,16088,-81,34,-45
495309159,-2700,-260,16024,-61,207,-78
495312650,-2828,-192,16076,-113,94,-86
495316095,-2792,-152,16064,-65,120,-58
495319565,-2788,-280,16028,-119,159,-58
495323122,-2804,-216,16060,-84,56,-75
495326505,-2796,-200,15988,-80,180,-47
495329975,-2752,-124,15956,-109,80,-70
495333445,-2716,-240,16024,-64,142,-45
495336957,-2860,-232,15928,-102,63,-97
495340385,-2728,-120,15868,-88,88,-58
495343769,-2744,-188,15856,-114,131,-48
495347325,-2788,-196,15980,-94,71,-70
495350708,-2776,-184,15996,-102,161,-51
495354265,-2868,-308,16012,-68,55,-74
495357649,-2780,-268,16072,-63,192,-35
495361167,-2748,-232,16040,-100,92,-64
495364588,-2864,-140,16088,-57,99,-59
495367972,-2880,-212,15920,-112,129,-41
495371529,-2908,-188,16048,-78,70,-64
495374912,-2792,-212,15956,-93,194,-44
495378382,-2804,-164,15952,-109,60,-92
495381852,-2772,-220,16000,-69,162,-67
495385346,-2748,-268,15972,-114,89,-57
495388792,-2888,-320,16036,-78,96,-32
495392175,-2708,-196,15932,-115,195,-67
495395732,-2804,-236,16072,-65,58,-72
495399115,-2876,-284,15956,-82,169,-56
495402585,-2724,-140,15972,-108,62,-75
495406055,-2812,-188,15944,-57,119,-45
495409550,-2832,-200,16004,-105,84,-82
495412995,-2804,-208,16032,-66,76,-41
495416378,-2776,-188,16048,-132,135,-60
495419935,-2792,-172,15980,-103,59,-67
495423405,-2780,-324,16068,-83,189,-68
495426875,-2608,-108,15992,-95,64,-55
495430258,-2876,-204,16144,-54,145,-68
495433728,-2880,-200,16008,-123,124,-70
495437327,-2704,-164,16060,-89,96,-58
495440668,-2760,-180,16072,-115,117,-55
495444225,-2800,-196,15956,-94,30,-32
495447608,-2820,-248,16024,-79,195,-55
495451078,-2780,-244,16020,-118,38,-50
495454548,-2912,-144,15964,-76,153,-75
495458018,-2780,-168,16056,-116,133,-78
495461624,-2732,-216,15936,-94,37,-56
495464958,-2792,-136,16020,-115,185,-80
495468515,-2720,-276,15984,-81,63,-56
495471898,-2852,-216,15952,-61,163,-71
495475368,-2796,-280,15976,-105,35,-63
495478838,-2744,-204,15964,-50,123,-23
495482308,-2680,-244,15880,-110,88,-62
495485803,-2704,-224,15908,-62,65,-62
495489161,-2740,-276,16088,-132,160,-70
495492718,-2760,-212,15836,-83,55,-55
495496101,-2840,-244,16012,-61,178,-56
495499571,-2848,-180,16000,-80,75,-59
495502955,-2728,-148,16072,-69,110,-60
495506425,-2764,-252,16064,-93,65,-47
495509833,-2676,-232,15960,-67,77,-64
495513191,-2784,-160,15932,-110,138,-62
495516748,-2788,-216,15928,-75,49,-64
495520131,-2784,-220,15980,-100,181,-79
495523688,-2832,-276,15888,-103,52,-47
495527158,-2660,-184,15972,-75,170,-59
495530628,-2688,-212,15992,-107,82,-76
495534102,-2800,-200,15928,-72,106,-40
495537610,-2896,-216,15920,-115,190,-75
495541125,-2796,-172,15952,-91,77,-76
495544508,-2860,-96,15996,-82,167,-19
495547891,-2852,-252,15856,-92,40,-80
495551275,-2812,-240,16052,-63,124,-37
495554745,-2752,-220,15948,-119,76,-71
495558215,-2832,-236,15980,-89,65,-63
495561658,-2760,-188,16004,-132,144,-56
495565154,-2820,-156,15896,-88,70,-53
495568538,-2780,-272,16036,-95,171,-75
495572008,-2752,-276,15960,-99,40,-59
495575391,-2824,-144,15836,-65,140,-61
495578861,-2904,-196,15956,-114,75,-62
495582331,-2860,-208,16168,-72,81,-67
495585739,-2880,-212,15972,-122,127,-63
495589271,-2752,-240,15932,-94,68,-89
495592654,-2880,-204,15920,-105,182,-75
495596211,-2868,-180,15964,-118,54,-70
495599681,-2880,-88,16072,-60,132,-10
495603064,-2796,-216,16004,-118,131,-68
495606621,-2764,-164,15968,-62,78,-69
495610029,-2888,-200,15936,-92,174,-60
495613474,-2864,-288,15932,-59,48,-68
495616858,-2824,-172,15824,-127,173,-78
495620414,-2788,-152,15908,-79,44,-67
495623797,-2812,-168,16076,-71,153,-46
495627267,-2848,-248,16088,-125,127,-84
495630824,-2840,-260,15960,-60,113,-60
495634298,-2876,-184,16116,-121,150,-46
495637893,-2740,-284,15992,-95,54,-100
495641321,-2772,-200,15880,-74,169,-36
495644791,-2804,-132,16048,-94,43,-69
495648174,-2912,-248,16088,-64,134,-47
495651644,-2848,-156,15920,-123,105,-94
495655201,-2764,-240,16024,-81,63,-71
495658584,-2808,-240,15976,-101,147,-72
495662189,-2736,-188,15900,-79,48,-55
495665524,-2900,-216,16028,-65,161,-58
495668994,-2836,-212,15864,-116,74,-69
495672464,-2904,-228,15988,-58,130,-33
495675934,-2832,-148,16004,-121,170,-75
495679491,-2824,-260,15916,-84,70,-50
495682874,-2744,-168,15980,-95,175,-76
495686369,-2828,-208,16076,-88,65,-57
495689727,-2900,-176,15936,-66,159,-36
495693198,-2832,-164,16168,-130,74,-71
495696668,-2840,-220,15884,-74,92,-82
495700051,-2880,-268,15924,-120,131,-57
495703607,-2796,-204,15948,-72,90,-84
495706991,-2756,-188,16144,-103,191,-97
495710572,-2816,-252,15916,-77,59,-47
495713931,-2824,-188,15940,-82,173,-57
495717401,-2856,-192,16004,-89,72,-80
495720784,-2820,-212,15836,-44,105,-66
495724254,-2808,-196,16016,-123,93,-87
495727724,-2704,-268,15840,-85,86,-49
495731107,-2764,-200,15960,-116,151,-62
495734687,-2708,-208,16048,-105,41,-84
495738169,-2912,-152,15932,-55,179,-50
495741604,-2780,-148,16024,-113,69,-74
495745074,-2792,-164,15988,-61,148,-31
495748544,-2724,-216,15844,-119,157,-36
495752101,-2756,-136,16048,-75,70,-63
495755484,-2800,-160,15948,-74,175,-59
495758957,-2716,-124,15852,-96,59,-73
495762386,-2764,-284,15908,-52,164,-63
495765807,-2868,-196,15892,-89,49,-65
495769190,-2812,-200,15900,-55,144,-53
495772661,-2772,-192,16016,-131,112,-87
495776217,-2808,-300,15936,-60,104,-61
495779687,-2744,-188,15964,-95,170,-41
495783157,-2736,-160,16032,-97,67,-82
495786565,-2736,-224,15980,-54,159,-60
495790010,-2868,-260,15980,-99,46,-76
495793394,-2812,-232,15968,-67,104,-32
495796864,-2824,-284,15992,-116,115,-68
495800420,-2864,-312,15976,-63,60,-39
495803804,-2776,-332,16080,-95,182,-86
495807274,-2808,-176,16048,-102,60,-79
495810768,-2688,-200,16000,-57,137,-36
495814214,-2788,-164,15888,-114,126,-55
495817770,-2928,-232,16004,-61,88,-40
495821154,-2808,-172,16168,-111,195,-56
495824711,-2724,-248,15976,-53,71,-71
495828094,-2836,-140,16080,-102,161,-91
495831651,-2796,-236,15892,-80,38,-55
495835057,-2776,-232,15932,-66,200,-36
495838539,-2856,-192,15920,-92,79,-57
495841887,-2768,-320,16000,-69,146,-54
495845357,-2852,-240,15876,-127,123,-82
495848914,-2676,-220,15876,-63,105,-45
495852384,-2836,-176,16108,-73,167,-57
495855854,-2832,-108,15948,-101,54,-72
495859327,-2700,-116,16072,-64,148,-14
495862842,-2868,-216,16036,-88,73,-81
495866177,-2884,-188,16020,-60,74,-1
495869473,-2796,-204,15976,-117,134,-80
495873030,-2676,-156,16060,-81,59,-79
495876414,-2800,-312,15932,-95,181,-90
495879883,-2812,-232,15912,-83,61,-80
495883267,-2848,-96,16008,-60,174,-49
495886675,-2856,-268,15860,-93,30,-76
495890033,-2880,-204,16088,-61,161,-55
495893503,-2784,-252,16088,-106,45,-66
495896973,-2804,-88,16076,-101,82,-58
495900357,-2792,-200,16024,-96,102,-64
495903827,-2772,-228,15892,-74,62,-49
495907210,-2780,-192,16008,-106,173,-59
495910791,-2936,-220,16028,-108,57,-80
495914237,-2804,-148,16072,-60,163,-72
495917707,-2712,-208,16040,-83,48,-50
495921090,-2752,-240,15984,-64,138,-63
495924560,-2784,-264,16020,-90,74,-84
495927943,-2800,-236,15964,-82,93,-42
495931326,-2784,-148,16044,-114,135,-68
495934906,-2872,-292,16024,-103,58,-71
495938357,-2820,-176,16108,-69,158,-27
495941858,-2772,-208,15824,-105,79,-41
495945293,-2812,-220,15960,-82,125,-46
495948763,-2816,-252,15968,-116,149,-84
495952320,-2776,-328,15996,-89,47,-79
495955703,-2804,-208,15940,-67,174,-56
495959176,-2804,-176,15896,-70,34,-63
495962606,-2840,-264,15916,-55,118,-31
495966026,-2892,-284,15892,-123,51,-72
495969496,-2828,-256,16008,-76,133,-54
495972966,-2912,-264,15976,-96,148,-92
495976436,-2744,-292,16016,-88,77,-41
495979820,-2900,-272,15820,-79,186,-76
495983289,-2900,-300,16044,-108,79,-68
495986784,-2868,-244,15884,-73,136,-54
495990230,-2864,-204,15972,-106,50,-67
495993699,-2832,-248,16032,-83,78,-63
495997083,-2808,-244,15924,-117,147,-72
496000640,-2768,-296,15892,-97,43,-99
496004023,-2832,-204,16008,-61,184,-79
496007493,-2852,-188,15956,-107,71,-94
496010987,-2784,-260,15884,-75,143,-32
496014433,-2792,-140,15904,-111,122,-54
496017989,-2748,-188,15928,-75,85,-56
496021373,-2792,-240,15900,-86,192,-64
496024843,-2864,-260,16048,-96,55,-84
496028226,-2784,-180,16072,-99,167,-65
496031696,-2804,-132,16048,-103,33,-54
496035189,-2812,-164,15964,-71,178,-49
496038636,-2808,-252,15916,-99,104,-54
496042141,-2808,-328,15968,-71,119,-36
496045576,-2804,-136,16048,-110,153,-67
496049133,-2812,-252,15948,-76,94,-85
496052516,-2696,-200,15872,-72,179,-51
496055986,-2796,-160,16084,-95,46,-76
496059472,-2784,-212,15936,-66,142,-45
496062839,-2820,-232,16000,-115,69,-72
496066309,-2744,-252,15916,-50,95,-62
496069692,-2980,-232,16108,-114,116,-75
496073249,-2716,-152,16192,-103,82,-59
496076719,-2784,-276,15984,-117,159,-81
496080276,-2840,-200,15956,-85,73,-75
496083659,-2824,-144,15972,-60,159,-55
496087154,-2832,-244,15916,-91,92,-74
496090512,-2732,-204,15820,-55,149,-40
496093987,-2780,-232,15936,-146,75,-53
496097452,-2740,-188,15924,-71,63,-66
496100836,-2764,-200,15928,-117,153,-66
496104393,-2796,-184,16016,-84,65,-79
496107776,-2796,-212,15832,-88,167,-89
496111270,-2800,-272,15996,-118,71,-45
496114716,-2896,-216,15804,-67,152,-48
496118186,-2800,-256,15876,-114,132,-57
496121743,-2800,-168,16136,-73,84,-63
496125126,-2824,-248,15976,-89,185,-28
496128596,-2696,-256,16008,-79,59,-68
496131979,-2800,-284,16048,-58,170,-74
496135472,-2848,-180,15824,-113,24,-65
496138919,-2884,-208,16120,-47,103,-68
496142428,-2796,-336,15960,-107,126,-65
496145946,-2824,-232,16048,-83,69,-79
496149329,-2776,-64,16072,-125,162,-39
496152799,-2776,-216,15988,-95,43,-74
496156182,-2696,-232,15980,-97,175,-64
496159701,-2796,-220,16072,-91,74,-68
496163036,-2812,-220,15936,-70,147,-41
496166505,-2800,-224,15908,-115,67,-84
496169976,-2812,-224,15960,-60,78,-64
496173359,-2868,-276,15904,-109,153,-52
496176915,-2788,-192,16040,-101,18,-65
496180385,-2776,-248,16056,-85,176,-79
496183859,-2848,-216,16068,-118,59,-61
496187350,-2792,-168,15888,-79,148,-55
496190796,-2808,-284,16236,-141,113,-72
496194352,-2804,-212,15960,-78,88,-64
496197736,-2956,-212,16040,-102,205,-62
496201292,-2828,-216,16028,-90,59,-32
496204675,-2876,-192,16096,-81,153,-53
496208145,-2820,-228,15980,-113,40,-68
496211640,-2800,-220,15956,-61,126,-72
496215085,-2788,-316,15912,-117,98,-39
496218556,-2760,-184,16016,-109,54,-75
496222026,-2892,-240,15892,-83,172,-70
496225495,-2788,-208,15788,-92,14,-36
496228879,-2716,-200,15860,-77,153,-50
496232349,-2912,-160,15900,-99,74,-64
496235755,-2772,-208,16108,-74,109,-71
496239202,-2968,-224,16120,-135,114,-43
496242794,-2840,-228,16056,-69,62,-57
496246142,-2816,-240,15928,-109,174,-55
496249699,-2832,-280,15904,-95,60,-70
496253082,-2680,-308,16056,-64,132,-54
496256552,-2780,-192,16024,-109,117,-72
496260157,-2776,-200,15988,-69,100,-36
496263579,-2800,-320,15824,-88,157,-47
496267049,-2844,-132,16072,-98,53,-52
496270432,-2736,-188,16104,-71,148,-63
496273902,-2880,-176,16056,-115,59,-66
496277372,-2900,-192,15908,-84,115,-20
496280842,-2872,-176,15928,-112,102,-55
496284423,-2868,-296,16036,-118,64,-56
496287869,-2800,-208,15868,-69,183,-58
496291339,-2836,-312,15916,-96,62,-53
496294722,-2764,-212,16036,-59,165,-39
496298192,-2896,-172,16084,-104,100,-56
496301749,-2816,-228,15952,-75,90,-69
496305132,-2812,-260,16032,-111,90,-72
496308602,-2852,-276,15864,-104,66,-77
496312097,-2848,-200,16164,-112,181,-44
496315629,-2808,-116,15988,-107,55,-84
496319099,-2748,-272,16036,-86,82,-54
496322482,-2840,-92,15972,-150,110,-62
496325952,-2860,-152,15988,-54,84,-56
496329335,-2900,-192,15988,-84,190,-51
496332805,-2784,-168,15996,-97,59,-68
496336212,-2684,-116,16068,-67,159,-53
496339658,-2888,-172,16072,-78,50,-55
496343077,-2788,-228,16044,-65,113,-56
496346512,-2836,-240,16040,-114,105,-80
496350068,-2904,-144,15968,-76,69,-73
496353452,-2856,-176,16004,-103,168,-79
496357009,-2812,-272,16092,-78,49,-67
496360440,-2724,-172,16160,-80,170,-57
496363862,-2856,-220,15920,-89,55,-70
496367245,-2848,-224,15952,-60,129,-46
496370715,-2740,-132,15992,-121,73,-73
496374185,-2844,-136,16004,-52,84,-13
496377568,-2772,-228,16100,-91,138,-101
496381125,-2928,-192,15924,-87,40,-69
496384533,-2780,-240,15956,-94,188,-57
496387978,-2804,-220,16036,-102,56,-7
496391361,-2824,-148,15948,-49,166,-71
496394831,-2760,-284,16064,-120,109,-81
496398388,-2792,-292,16032,-71,104,-47
496401858,-2808,-228,16044,-97,201,-53
496405328,-2752,-268,15896,-84,66,-85
496408711,-2800,-136,16088,-98,185,-57
496412206,-2740,-160,16028,-103,60,-70
496415651,-2848,-228,15976,-98,175,-48
496419121,-2776,-252,15968,-116,86,-77
496422591,-2900,-196,15976,-55,136,-62
496426062,-2780,-224,15920,-112,138,-65
496429618,-2772,-188,16124,-86,93,-39
496433001,-2912,-204,16044,-86,181,-43
496436495,-2860,-204,16132,-101,43,-69
496439941,-2880,-200,15952,-57,153,-54
496443446,-2884,-248,16000,-113,48,-84
496446882,-2820,-216,15980,-66,104,-60
496450351,-2828,-184,15884,-113,146,-76
496453908,-2868,-240,15984,-92,32,-69
496457292,-2864,-164,15832,-103,180,-81
496460897,-2736,-144,15924,-98,47,-76
496464231,-2724,-232,16108,-69,183,-50
496467702,-2824,-200,15968,-128,109,-69
496471258,-2812,-112,16052,-67,110,-70
496474728,-2804,-156,15916,-122,179,-78
496478285,-2780,-204,15940,-73,73,-58
496481668,-2856,-216,15908,-91,168,-44
496485163,-2756,-268,16048,-86,58,-69
496488521,-2820,-272,15924,-59,114,-74
496491992,-2732,-256,16004,-114,62,-71
496495461,-2836,-232,15960,-74,80,-60
496498845,-2796,-232,16004,-114,137,-56
496502401,-2844,-216,15992,-92,54,-78
496505785,-2772,-188,15896,-95,180,-57
496509258,-2812,-272,16024,-80,51,-50
496512663,-2808,-204,15944,-73,168,-36
496516108,-2860,-168,16040,-87,49,-85
496519491,-2804,-208,15976,-75,105,-59
496522961,-2844,-124,16056,-113,89,-81
496526431,-2896,-232,15980,-76,63,-69
496529814,-2836,-160,15964,-115,163,-80
496533371,-2804,-308,16036,-90,33,-52
496536778,-2832,-252,16172,-94,188,-62
496540225,-2764,-140,16024,-96,80,-53
496543643,-2828,-212,15892,-69,106,-57
496547078,-2764,-200,15968,-114,72,-73
496550548,-2884,-228,16032,-77,84,-34
496553931,-2848,-220,15912,-127,117,-64
496557488,-2804,-144,15992,-102,53,-61
496561018,-2804,-328,15980,-73,191,-51
496564428,-2684,-220,15968,-95,70,-62
496567811,-2788,-260,15876,-56,121,-58
496571281,-2756,-148,15892,-142,133,-84
496574838,-2856,-208,16052,-56,91,-72
496578221,-2804,-168,16080,-101,188,-70
496581778,-2760,-140,15932,-105,56,-79
496585272,-2808,-204,15848,-53,146,-35
496588718,-2876,-188,15984,-130,67,-50
496592188,-2740,-168,15924,-90,96,-46
496595571,-2844,-212,15980,-121,112,-55
496599128,-2800,-240,16056,-100,47,-53
496602598,-2816,-164,15916,-100,196,-47
496606154,-2868,-216,16056,-111,49,-88
496609649,-2720,-184,15896,-86,161,-45
496613094,-2808,-168,16060,-105,86,-56
496616565,-2860,-260,16036,-79,113,-74
496620035,-2740,-260,15940,-123,153,-68
496623591,-2872,-288,15988,-79,75,-79
496626974,-2800,-216,15900,-57,170,-46
496630445,-2784,-196,16000,-85,49,-52
496633831,-2760,-296,15940,-50,143,-55
496637321,-2880,-196,15916,-104,80,-79
496640768,-2736,-156,15968,-66,122,-39
496644273,-2760,-128,15976,-108,167,-55
496647794,-2792,-268,15940,-95,57,-60
496651178,-2932,-244,16012,-72,177,-38
496654648,-2788,-236,15828,-81,65,-65
496658031,-2856,-264,16060,-57,143,-49
496661549,-2824,-344,15992,-109,68,-62
496664971,-2844,-160,16040,-74,69,-46
496668354,-2732,-268,16076,-96,169,-70
496671824,-2796,-144,15904,-98,38,-57
496675208,-2704,-208,15912,-63,171,-48
496678678,-2784,-172,15948,-126,82,-67
496682147,-2896,-228,15908,-64,138,-50
496685642,-2888,-284,16004,-123,136,-89
496689174,-2864,-180,16060,-96,97,-84
496692557,-2804,-244,15960,-105,182,-59
496696114,-2872,-220,15908,-90,42,-47
496699498,-2844,-176,15916,-81,174,-53
496702967,-2848,-144,16048,-108,72,-62
496706437,-2900,-264,15984,-54,145,-57
496709932,-2836,-244,16032,-102,109,-97
496713464,-2860,-224,15980,-60,101,-58
496716934,-2824,-92,15800,-91,173,-43
496720317,-2848,-340,15972,-80,68,-72
496723701,-2784,-284,15992,-65,171,-59
496727171,-2796,-224,15920,-112,69,-53
496730641,-2776,-256,15932,-56,101,-48
496734114,-2748,-256,15960,-138,81,-102
496737691,-2824,-68,15904,-79,56,-74
496740964,-2924,-128,16012,-105,174,-53
496744556,-2864,-200,16012,-102,74,-85
496747991,-2832,-192,15920,-66,180,-25
496751461,-2808,-212,15972,-121,65,-84
496754931,-2812,-176,15924,-59,126,-61
496758401,-2968,-180,16016,-107,134,-69
496762006,-2812,-204,16028,-94,71,-44
496765341,-2812,-196,16124,-83,198,-43
496768811,-2884,-288,15984,-93,44,-60
496772194,-2808,-192,16120,-82,187,-57
496775664,-2636,-224,15924,-131,66,-93
496779134,-2844,-240,15916,-64,131,-55
496782604,-2748,-132,16068,-115,134,-66
496786185,-2892,-268,16028,-76,83,-50
496789544,-2776,-332,15992,-127,171,-50
496793101,-2856,-168,16032,-81,59,-63
496796484,-2704,-240,16184,-64,168,-48
496799954,-2776,-252,15976,-74,68,-88
496803337,-2848,-204,15944,-74,114,-63
496806807,-2736,-160,16012,-113,93,-49
496810302,-2804,-248,15964,-88,74,-79
496813660,-2792,-176,16020,-131,160,-87
496817217,-2888,-336,15916,-84,38,-45
496820600,-2936,-256,15936,-101,153,-42
496824157,-2860,-232,15876,-116,81,-59
496827627,-2892,-260,16080,-45,144,-48
496831097,-2784,-156,16152,-131,118,-77
496834677,-2808,-216,15960,-73,71,-57
496838037,-2844,-284,15896,-75,204,-67
496841507,-2836,-144,15920,-99,44,-73
496844925,-2848,-176,15984,-100,182,-56
496848447,-2800,-296,15944,-92,60,-57
496851831,-2832,-256,15956,-88,177,-38
496855300,-2728,-132,16084,-113,85,-84
496858771,-2800,-204,15988,-57,158,-56
496862289,-2880,-276,16056,-106,156,-61
496865797,-2868,-228,15976,-82,58,-55
496869181,-2768,-136,16044,-93,177,-52
496872650,-2748,-184,16004,-97,57,-64
496876034,-2824,-312,15864,-55,88,-44
496879417,-2928,-184,15908,-105,78,-84
496882887,-2712,-212,16188,-91,79,-54
496886295,-2892,-212,16028,-106,143,-82
496889827,-2892,-296,15888,-95,41,-51
496893210,-2712,-272,15860,-101,182,-49
496896767,-2752,-200,16016,-101,64,-88
496900237,-2844,-172,16028,-56,146,-38
496903707,-2744,-324,16024,-93,54,-68
496907090,-2900,-124,15912,-68,99,-77
496910498,-2916,-232,15988,-126,106,-47
496914030,-2720,-216,16012,-108,58,-63
496917500,-2740,-244,16128,-95,190,-56
496920970,-2848,-260,15992,-102,29,-49
496924440,-2824,-216,15908,-51,156,-39
496927910,-2780,-208,15864,-119,77,-82
496931380,-2756,-220,15972,-74,130,-71
496934874,-2820,-212,15992,-110,155,-47
496938407,-3000,-240,15936,-90,38,-67
496941790,-2908,-196,16100,-56,158,-35
496945295,-2896,-204,16024,-105,66,-65
496948730,-2884,-316,15872,-42,101,-94
496952200,-2832,-168,15916,-124,93,-52
496955670,-2876,-296,15880,-57,82,-43
496959057,-2784,-160,15984,-133,134,-103
496962746,-2716,-104,15888,-92,72,-57
496966080,-2796,-164,15920,-56,137,-79
496969550,-2772,-208,15928,-138,121,-70
496973107,-2756,-212,15992,-63,98,-51
496976490,-2740,-240,15944,-104,166,-72
496980047,-2808,-180,15904,-101,73,-47
496983517,-2752,-92,16048,-64,170,-50
496986925,-2820,-236,15980,-103,61,-85
496990370,-2848,-228,16028,-49,159,-52
496993840,-2744,-200,15984,-110,107,-72
496997397,-2760,-344,16048,-71,67,-50
497000780,-2776,-168,15944,-104,167,-69
497004337,-2740,-208,15944,-112,59,-87
497007807,-2856,-216,15948,-69,162,-34
497011302,-2768,-208,15964,-100,97,-78
497014747,-2744,-244,15940,-60,91,-20
497018130,-2844,-288,16052,-135,99,-67
497021600,-2884,-248,16052,-79,65,-64
497024983,-2796,-300,15892,-133,167,-69
497028540,-2732,-196,15984,-99,30,-66
497031924,-2912,-216,15912,-86,174,-50
497035417,-2852,-92,15892,-107,78,-77
497038777,-2788,-80,15864,-62,138,-71
497042160,-2808,-136,15888,-98,87,-51
497045578,-2888,-144,15996,-86,89,-79
497048927,-2788,-160,15900,-106,125,-64
497052483,-2812,-240,15916,-80,51,-49
497055867,-2812,-268,16052,-119,177,-70
497059526,-2792,-256,16024,-89,59,-68
497062807,-2872,-212,15948,-67,150,-46
497066277,-2836,-184,15888,-107,105,-80
497069833,-2860,-68,15932,-52,86,-55
497073130,-2884,-292,15940,-75,192,-61
497076600,-2876,-364,16028,-85,53,-56
497079983,-2840,-168,15912,-120,198,-77
497083540,-2808,-104,15976,-109,47,-59
497087034,-2772,-192,15908,-71,115,-40
497090480,-2800,-276,15908,-110,106,-79
497094036,-2772,-252,16016,-90,58,-88
497097420,-2820,-132,16068,-109,161,-66
497100976,-2856,-176,16064,-77,67,-92
497104360,-2864,-192,15972,-57,179,-62
497107830,-2804,-268,15936,-111,52,-32
497111324,-2768,-284,16052,-34,107,-59
497114770,-2892,-224,16096,-111,77,-55
497118240,-2716,-240,16064,-81,65,-33
497121623,-2860,-152,15912,-112,163,-74
497125180,-2728,-288,15968,-68,54,-50
497128563,-2756,-312,15960,-82,184,-58
