Time,Accel_X,Accel_Y,Accel_Z,Gyro_X,Gyro_Y,Gyro_Z
409607688,-2892,-340,14920,-116,228,130
409611245,-2632,-420,14884,-93,252,221
409614739,-2664,-444,14868,-85,190,195
409618185,-2736,-420,15136,2,251,248
409621481,-2696,-496,14900,-78,188,149
409624951,-2692,-428,14948,-46,233,174
409628421,-2784,-432,15028,22,221,218
409631804,-2512,-416,14740,-92,275,85
409635188,-2776,-400,15032,41,252,264
409638594,-2452,-616,14880,36,154,221
409641989,-2900,-436,15256,-134,318,80
409645424,-2700,-440,15168,-3,84,339
409648721,-2564,-356,14776,-155,223,146
409652277,-2728,-524,15288,-1,239,253
409655661,-2488,-468,14780,-52,191,145
409659131,-2920,-488,15232,-26,333,190
409662649,-2664,-504,14992,76,111,306
409665984,-2640,-536,14992,-46,275,125
409669454,-2740,-460,15024,66,128,288
409672837,-2412,-504,14676,-161,281,17
409676307,-2856,-376,15112,-3,278,231
409679690,-2312,-628,14784,-127,204,100
409683247,-2788,-584,15016,9,208,256
409686544,-2460,-576,14856,-120,257,71
409690043,-2796,-496,15172,31,128,284
409693397,-2480,-512,14784,-36,260,187
409696867,-2768,-464,15136,-17,115,248
409700337,-2624,-600,15044,70,345,155
409703720,-2744,-552,14996,-34,168,238
409707190,-2584,-396,14848,-78,329,72
409710573,-2816,-364,15032,-75,238,211
409714068,-2632,-384,14956,-118,223,98
409717513,-2872,-472,15308,-99,274,174
409720983,-2420,-492,14816,-8,124,254
409724367,-2776,-404,15004,-19,289,168
409727837,-2508,-476,14700,-38,264,175
409731307,-2768,-492,15080,-15,215,153
409734777,-2752,-280,14832,34,259,245
409738183,-2612,-432,14768,-55,202,166
409741633,-2804,-424,15148,-15,217,224
409745135,-2712,-436,15056,-89,224,132
409748570,-2772,-492,15164,-7,190,176
409751953,-2744,-488,14948,-73,245,252
409755423,-2604,-536,14916,-117,266,45
409758893,-2732,-488,14948,43,259,257
409762325,-2428,-480,14828,-111,261,80
409765746,-2648,-540,14900,53,163,302
409769130,-2748,-536,14924,-94,310,61
409772513,-2976,-360,14868,16,108,320
409775896,-2536,-416,14616,-128,376,33
409779366,-3032,-288,15100,-4,102,323
409782749,-2564,-492,14896,-137,408,59
409786219,-2848,-472,15080,8,86,259
409789454,-2444,-456,14832,-37,267,147
409792899,-2860,-436,15352,-81,254,187
409796369,-2568,-464,14784,-4,197,181
409799752,-2760,-528,15116,-78,334,146
409803222,-2756,-480,15156,68,163,199
409806606,-2564,-488,14780,3,321,129
409809902,-2720,-372,14840,-125,203,157
409813483,-2868,-600,15228,12,186,212
409816842,-2640,-576,14820,-159,282,101
409820399,-2944,-404,15080,-16,98,286
409823782,-2520,-436,14836,-70,337,141
409827252,-2732,-512,15140,-13,167,191
409830722,-2616,-396,14792,-58,293,140
409834192,-2900,-468,15208,57,164,222
409837599,-2552,-496,14896,4,257,145
409840872,-2808,-460,14996,-10,206,253
409844342,-2396,-500,14676,-185,308,9
409847760,-3092,-476,15464,-88,256,229
409851195,-2644,-448,14912,77,62,340
409854492,-2792,-364,15024,-142,315,48
409857962,-2780,-444,15228,8,125,309
409861258,-2648,-344,14896,-91,211,132
409864776,-2816,-464,14984,-10,279,212
409868198,-2644,-484,14936,4,195,159
409871495,-2828,-404,14996,57,216,279
409874878,-2648,-420,14956,-43,223,139
409878348,-2620,-456,15004,-6,221,154
409881731,-2560,-480,15140,-73,208,234
409885201,-2628,-424,15040,-64,170,202
409888696,-2532,-476,14996,-52,242,228
409892141,-2604,-452,15024,-82,235,122
409895611,-2652,-620,14904,-16,287,177
409899081,-2760,-288,15156,-35,215,194
409902551,-2480,-524,14752,-68,268,115
409906021,-2904,-380,15100,-44,275,166
409909491,-2592,-500,14828,-33,230,129
409912986,-2672,-468,14900,-76,283,191
409916431,-2676,-404,14872,-32,178,250
409919901,-2744,-516,14880,-43,212,223
409923371,-2592,-340,14884,-37,306,148
409926841,-2748,-436,15060,-86,178,166
409930311,-2560,-560,14932,21,305,180
409933694,-2744,-416,14852,-41,252,108
409937188,-2652,-540,15048,28,237,157
409940548,-2824,-292,14980,-66,255,189
409944018,-2648,-368,14772,32,103,278
409947404,-3104,-248,15112,-79,343,87
409950819,-2504,-536,14928,-38,38,296
409954167,-2696,-568,15080,-28,278,157
409957637,-2492,-544,15064,25,132,291
409961021,-2560,-352,14764,-141,280,44
409964540,-2828,-476,14952,127,120,411
409967961,-2472,-544,14876,-21,288,86
409971344,-2688,-592,15076,-21,275,240
409974814,-2536,-496,14804,-2,178,185
409978197,-2672,-468,14900,-115,329,39
409981667,-2912,-424,15312,-19,167,266
409985137,-2432,-480,14852,-71,201,108
409988632,-2728,-468,15044,-79,264,239
409992077,-2700,-448,14824,-68,185,134
409995547,-2776,-440,15028,-23,247,222
409999017,-2576,-336,14852,-54,287,144
410002487,-2868,-468,15112,70,137,281
410005870,-2368,-420,14420,-11,298,210
410009340,-3160,-288,15232,-58,173,160
410012835,-2300,-432,14556,21,264,207
410016194,-3004,-376,15212,-95,242,183
410019664,-2484,-528,15052,43,149,245
410023047,-2660,-432,14932,-91,320,143
410026517,-2684,-464,14924,-17,125,259
410029987,-2640,-504,14832,-30,277,180
410033457,-2632,-492,15028,-48,230,157
410036930,-2860,-300,14912,34,119,293
410040333,-2656,-384,14980,19,240,234
410043693,-2256,-332,14500,-81,222,88
410047077,-3132,-228,15140,-49,262,227
410050550,-2504,-516,14832,-19,105,265
410054052,-2940,-380,14964,-60,220,189
410057487,-2472,-604,15088,-21,193,234
410060957,-2848,-416,14952,-59,203,165
410064529,-2576,-508,14812,21,258,266
410067810,-2552,-456,14768,-98,265,82
410071193,-2860,-380,14984,158,140,407
410074663,-2264,-468,14644,-120,280,52
410078133,-2976,-336,15200,57,149,286
410081516,-2360,-328,14664,-145,296,109
410085073,-2844,-500,15196,67,68,321
410088394,-2352,-336,14704,-110,326,159
410091926,-2840,-496,15168,-38,130,234
410095396,-2472,-540,14744,-56,279,170
410098866,-2960,-364,15196,23,168,291
410102250,-2316,-520,14700,-47,271,115
410105720,-3080,-428,15168,74,209,343
410109103,-2296,-452,14524,-45,233,57
410112511,-3052,-452,15188,-11,319,178
410115956,-2224,-588,14568,-258,295,41
410119426,-3248,-280,15400,-59,185,243
410122896,-2088,-548,14504,-166,366,67
410126366,-3264,-416,15480,-106,203,118
410129923,-2380,-528,14472,46,238,247
410133306,-2876,-432,15396,-97,300,38
410136693,-2632,-472,14748,35,166,279
410140096,-2796,-300,15056,-121,373,-8
410143543,-2788,-316,15072,86,100,354
410146926,-2644,-500,14884,-195,419,32
410150396,-2808,-468,15104,11,118,242
410153783,-2940,-520,15156,-2,276,215
410157201,-2328,-512,14708,-64,145,209
410160632,-2952,-304,15180,-54,166,223
410164151,-2596,-556,14836,20,199,232
410167486,-2664,-580,14944,-90,287,74
410170869,-2732,-456,15040,92,247,292
410174252,-2496,-520,14716,-9,234,93
410177549,-2880,-560,15164,76,192,272
410180932,-2572,-324,14688,-158,324,42
410184402,-2912,-400,15236,-88,215,190
410187896,-2648,-332,14896,-47,265,236
410191342,-2772,-480,14908,-85,136,216
410194812,-2700,-484,15004,-3,310,144
410198195,-2880,-516,15120,-29,153,239
410201665,-2388,-608,14696,-29,276,133
410205135,-2992,-484,15240,-144,307,93
410208605,-2456,-464,14884,-24,179,173
410212079,-2792,-460,15164,-77,345,78
410215483,-2768,-356,14836,-41,207,192
410218928,-2732,-492,15044,-51,228,179
410222398,-2744,-408,14780,-59,237,266
410225868,-2740,-392,14856,-120,236,90
410229338,-2836,-452,15136,60,150,340
410232722,-2480,-400,14876,-103,282,47
410236192,-3008,-448,15288,10,229,222
410239598,-2444,-588,14532,3,227,245
410242871,-2788,-436,15136,-159,329,-26
410246428,-2916,-292,14972,-8,217,280
410249811,-2756,-400,15008,-136,249,56
410253281,-2852,-628,15244,48,200,283
410256665,-2648,-452,14816,-188,261,68
410260170,-2996,-480,15244,33,238,239
410263566,-2260,-544,14744,-79,275,162
410266988,-3048,-340,15148,-59,239,109
410270458,-2764,-456,15064,64,244,280
410273841,-2912,-444,15120,-73,241,109
410277311,-2556,-460,14856,-30,208,150
410280781,-2956,-356,15084,-143,292,72
410284251,-2500,-544,14804,-98,245,93
410287659,-2980,-396,15068,-18,250,232
410291104,-2468,-456,14856,-70,156,191
410294574,-2952,-448,15120,-16,265,242
410298044,-2584,-560,15096,-35,144,222
410301514,-2848,-368,15044,-4,164,252
410304898,-2404,-604,14828,-38,328,74
410308281,-2792,-464,15040,59,133,217
410311668,-2584,-364,14972,-131,392,70
410315159,-2776,-508,15040,-61,176,189
410318604,-2616,-484,15016,-3,223,269
410321987,-2744,-420,14948,-113,210,123
410325544,-2696,-476,15008,-25,138,296
410329014,-2596,-428,14940,-96,278,116
410332484,-2800,-392,15144,-37,139,210
410335954,-2724,-360,14848,58,263,259
410339361,-2696,-348,14788,-45,241,167
410342807,-2776,-596,15208,20,219,184
410346191,-2696,-352,14880,-101,279,186
410349747,-2792,-196,14736,-122,239,79
410353217,-2724,-564,15148,14,325,215
410356601,-2660,-524,14792,-13,85,277
410359987,-2628,-332,14980,-65,317,85
410363434,-2620,-424,14792,-42,181,236
410366837,-2776,-540,15132,-11,282,137
410370307,-2528,-520,14944,20,257,256
410373690,-2900,-368,15016,-62,255,69
410377074,-2792,-428,14860,88,181,269
410380457,-2680,-364,14864,-184,260,68
410383927,-2848,-480,15088,-66,268,166
410387422,-2548,-436,14940,-106,238,158
410390954,-2980,-428,15016,-37,110,252
410394424,-2564,-396,14728,-39,323,135
410397894,-2796,-516,15136,-86,167,195
410401364,-2612,-468,14640,49,198,243
410404747,-2744,-464,15096,-112,334,69
410408217,-2448,-424,14620,155,101,324
410411690,-2588,-356,14760,-203,484,-86
410415268,-2768,-384,14796,27,80,381
410418540,-2520,-512,14840,-182,430,-65
410422097,-3188,-520,15400,104,99,451
410425480,-2332,-424,14608,-197,293,18
410428950,-3032,-448,15412,121,166,370
410432420,-2176,-516,14440,-59,231,112
410435890,-3104,-416,15356,69,141,321
410439298,-2196,-568,14596,41,222,222
410442657,-2816,-408,14900,-140,298,64
410446127,-2524,-400,14660,64,203,322
410449510,-2436,-416,14692,-179,318,23
410452980,-3044,-416,15200,29,167,325
410456363,-2568,-316,14676,-55,226,109
410459833,-2656,-576,15036,3,226,130
410463177,-2564,-452,14808,-46,201,265
410466635,-2692,-292,14992,-50,282,128
410470070,-2440,-480,14876,17,199,285
410473453,-2700,-432,14836,-66,201,139
410476923,-2616,-552,14980,43,234,202
410480306,-2840,-448,14940,-147,245,101
410483863,-2652,-388,14788,-32,163,210
410487357,-2828,-504,15000,-141,322,125
410490890,-2860,-428,15024,-12,86,269
410494273,-2624,-392,14960,-152,399,34
410497743,-3028,-480,15324,60,121,342
410501126,-2532,-452,14796,-66,289,87
410504509,-2832,-536,15328,-17,228,197
410507979,-2356,-468,14748,-66,236,167
410511449,-2888,-436,14976,-46,335,97
410514857,-2540,-368,14876,-49,214,172
410518303,-2776,-424,15056,-35,270,180
410521773,-2704,-412,14960,-112,223,186
410525329,-2816,-400,14984,-94,192,183
410528799,-2608,-424,15000,-42,315,176
410532269,-2880,-524,15048,-50,131,194
410535739,-2600,-396,14784,31,277,161
410539147,-2500,-472,14992,-37,233,194
410542593,-2740,-540,14972,11,146,177
410545976,-2556,-524,14832,2,212,256
410549272,-2664,-384,14728,-158,326,11
410552742,-2828,-380,14956,1,204,311
410556039,-2688,-424,14932,-91,241,50
410559422,-2868,-412,15080,3,164,339
410562778,-2692,-444,14920,-135,304,80
410566192,-2748,-464,14992,6,189,249
410569520,-2624,-432,14832,-12,328,184
410572955,-2660,-492,14884,-15,182,207
410576425,-2596,-492,14824,-38,300,200
410579895,-2552,-356,14932,-20,181,228
410583365,-2740,-504,15092,-68,268,156
410586838,-2476,-464,14664,-117,306,135
410590416,-2852,-440,15264,-82,172,178
410593862,-2440,-544,14720,-71,326,131
410597332,-2976,-416,15184,-82,137,167
410600802,-2344,-576,14680,-33,255,121
410604272,-2900,-384,15088,-120,263,128
410607829,-2664,-416,14924,75,129,271
410611212,-2564,-564,14800,-134,438,-9
410614706,-2896,-400,15120,92,99,326
410617978,-2356,-528,14784,-60,316,129
410621448,-2808,-452,15208,-54,195,289
410624918,-2556,-528,14692,-160,230,107
410628475,-2956,-480,15196,17,231,264
410631858,-2504,-480,14760,-67,148,221
410635328,-2680,-568,14952,-63,391,70
410638736,-2628,-524,14896,41,161,331
410642095,-2616,-364,14792,-25,277,103
410645565,-2792,-444,15088,13,260,257
410648948,-2576,-328,14624,-70,195,125
410652418,-2800,-628,15320,59,276,207
410655801,-2440,-500,14608,-60,146,240
410659271,-2816,-476,15140,-49,324,85
410662702,-2428,-508,14652,-45,188,280
410666125,-2636,-500,15056,-97,280,67
410669546,-2576,-504,14864,43,257,213
410672891,-2764,-472,14932,-71,237,110
410676361,-2860,-472,15124,67,229,254
410679744,-2796,-388,14944,-119,299,72
410683214,-2800,-424,14756,49,108,297
410686601,-2692,-364,14796,-120,355,96
410690092,-2752,-536,15000,-115,152,185
410693624,-2516,-460,14964,-12,262,159
410697094,-2796,-400,15000,-59,206,171
410700564,-2480,-500,14956,-81,218,162
410704034,-2976,-424,15040,-22,292,226
410707504,-2488,-492,14788,12,174,168
410710888,-2676,-504,15124,-17,302,178
410714382,-2684,-396,14716,-127,225,171
410717914,-2916,-452,15032,-37,307,85
410721298,-2684,-448,14992,3,232,251
410724594,-2688,-452,15052,-110,264,120
410728151,-2756,-400,14940,11,231,252
410731534,-2852,-400,15156,-89,199,123
410735004,-2572,-616,14976,26,235,267
410738412,-2816,-500,14988,-77,270,87
410741771,-2692,-616,15196,114,177,239
410745241,-2480,-476,14716,-52,336,132
410748711,-2736,-372,14932,-58,180,153
410752181,-2716,-492,14936,-35,277,173
410755651,-2692,-400,14992,-125,182,169
410759207,-2540,-492,14968,-38,194,147
410762724,-2796,-420,15108,-73,209,242
410766147,-2568,-400,14792,-21,172,166
410769652,-2784,-456,14900,1,256,229
410772914,-2564,-468,14900,-18,178,177
410776384,-2748,-472,15096,32,200,167
410779767,-2544,-396,14796,-53,201,218
410783237,-2748,-412,14932,-74,203,138
410786711,-2644,-488,14892,-40,304,190
410790202,-2832,-356,15144,-14,143,220
410793647,-2304,-484,14740,31,176,279
410797030,-2856,-384,15052,-118,258,125
410800587,-2476,-404,14760,37,93,334
410803884,-2596,-516,14904,-109,406,46
410807354,-2468,-600,14848,35,144,214
410810737,-2672,-396,14704,-54,373,143
410814231,-2540,-236,14644,17,171,246
410817590,-2692,-448,14924,-79,257,90
410820973,-2800,-504,15036,6,257,246
410824270,-2396,-592,14748,-143,219,127
410827827,-2928,-428,15316,-108,331,93
410831297,-2276,-576,14564,-75,198,160
410834767,-3100,-340,15184,-116,359,98
410838261,-2420,-548,14616,52,168,305
410841620,-2700,-388,14920,-89,305,76
410845003,-2940,-372,15016,119,179,355
410848473,-2396,-500,14656,-220,354,-107
410852117,-2612,-476,15120,135,71,451
410855500,-2484,-336,14548,-236,408,-86
410859057,-3124,-412,15440,134,1,440
410862400,-2240,-532,14608,-155,363,57
410865823,-3124,-288,15380,-36,146,241
410869297,-2308,-460,14792,-78,341,125
410872798,-2980,-372,15244,-21,163,196
410876233,-2596,-436,14924,-15,280,162
410879703,-2808,-460,14976,-15,181,197
410883173,-2540,-500,14732,-136,265,73
410886647,-3024,-456,15088,-20,246,204
410890138,-2220,-668,14760,-70,193,125
410893583,-2980,-352,15200,-62,287,184
410897053,-2376,-444,14680,-44,269,122
410900523,-3044,-480,15124,-88,262,120
410903993,-2528,-576,14784,-12,267,225
410907463,-2784,-504,14968,-83,253,73
410910846,-2816,-456,15144,97,188,330
410914254,-2432,-352,14600,-47,209,155
410917700,-3040,-484,15044,-58,280,163
410921170,-2352,-556,14816,-67,273,189
410924640,-2824,-420,15196,-118,290,48
410928110,-2524,-444,14784,80,148,370
410931493,-2492,-512,14864,-174,285,27
410934963,-2676,-460,14844,47,131,336
410938371,-2536,-432,14792,-122,292,41
410941816,-2856,-336,15112,71,125,238
410945199,-2804,-380,14928,-50,385,87
410948583,-2736,-412,14976,55,153,278
410951966,-2616,-388,14992,-58,288,150
410955436,-2796,-488,15096,-117,194,115
410958993,-2656,-544,15000,23,165,258
410962424,-2604,-440,14812,-147,259,145
410965933,-2756,-528,15064,7,150,217
410969229,-2572,-420,15000,-40,341,144
410972703,-2852,-408,14952,29,150,240
410976117,-2484,-468,14936,27,322,146
410979466,-2836,-452,15176,-49,176,225
410982936,-2532,-420,14832,-88,163,211
410986406,-2784,-452,14996,-71,295,115
410989900,-2788,-368,14876,-31,140,261
410993346,-2432,-556,14828,-101,303,97
410996816,-2772,-416,15016,-27,204,272
411000286,-2520,-456,14748,-84,220,167
411003756,-2804,-424,15044,-26,295,185
411007226,-2648,-424,14992,-25,163,224
411010696,-2756,-476,14972,50,254,146
411014103,-2600,-440,14824,-94,267,129
411017549,-2816,-488,14992,46,136,238
411020932,-2480,-472,14752,-85,249,222
411024402,-2768,-440,14964,-160,221,64
411027872,-2708,-388,15144,67,102,342
411031255,-2460,-580,14880,-134,303,34
411034725,-2844,-416,15192,109,69,356
411038133,-2276,-552,14696,-123,333,108
411041665,-3044,-324,15032,8,113,244
411044962,-2592,-576,15004,45,314,170
411048345,-2624,-384,14764,-57,198,168
411051815,-2660,-444,14956,-31,211,193
411055285,-2672,-428,14980,-65,225,217
411058755,-2636,-492,15176,-130,184,140
411062413,-2772,-384,15068,23,198,263
411065695,-2608,-420,14796,-155,275,91
411069165,-2900,-420,15228,34,183,268
411072548,-2600,-420,15020,-60,357,130
411076022,-2764,-468,15104,-5,150,201
411079440,-2628,-504,14868,-7,322,131
411082785,-2564,-472,14852,14,97,289
411086081,-2480,-380,14860,-66,356,60
411089489,-2824,-556,15032,20,192,271
411092848,-2700,-456,15000,-87,246,139
411096318,-2868,-432,15068,10,209,277
411099701,-2592,-468,14744,-91,199,154
411103171,-2700,-328,14928,-68,300,160
411106641,-2760,-428,14952,-69,178,173
411110111,-2572,-516,15048,42,274,177
411113519,-2948,-404,15060,-7,229,224
411116878,-2452,-524,14728,-5,255,114
411120261,-2980,-484,15200,40,214,301
411123644,-2388,-476,14608,-73,168,181
411127114,-2780,-588,15108,-137,395,71
411130584,-2344,-520,14832,-32,127,265
411134054,-2856,-496,15108,-74,316,98
411137462,-2560,-540,14776,-12,209,224
411140907,-2844,-392,15100,-45,224,176
411144377,-2588,-548,14996,27,340,172
411147761,-2664,-432,14936,-103,229,95
411151231,-2772,-504,15096,56,234,216
411154614,-2608,-376,14756,-147,195,163
411158171,-2920,-344,15012,-14,154,230
411161644,-2668,-476,14984,-54,338,106
411165158,-2524,-476,14940,-90,175,170
411168581,-2996,-320,15080,-32,274,147
411172051,-2620,-404,14976,-23,114,277
411175521,-2800,-428,14880,-38,228,140
411178994,-2716,-604,15204,-10,231,250
411182495,-2656,-408,14828,-3,187,156
411185844,-2608,-400,14816,-121,328,125
411189425,-2608,-488,14924,-12,189,234
411192871,-2636,-596,14992,-176,264,90
411196341,-2804,-412,14956,17,190,304
411199724,-2740,-428,14860,-73,248,112
411203194,-2684,-564,15028,37,240,233
411206577,-2780,-460,15124,-71,193,161
411210047,-2628,-536,14932,55,198,206
411213455,-2876,-412,15084,-97,300,97
411216814,-2660,-432,14996,112,93,309
411220197,-2588,-488,14748,-109,409,63
411223667,-2944,-380,15112,-6,74,324
411226963,-2240,-440,14772,-81,353,139
411230433,-3124,-424,15124,-18,124,293
411233903,-2416,-460,14516,-45,205,213
411237398,-3036,-404,15168,-86,274,181
411240843,-2548,-536,14684,96,115,261
411244227,-2880,-436,15168,-46,339,88
411247610,-2808,-416,15092,132,59,387
411250993,-2168,-472,14416,-221,391,-90
411254550,-3228,-364,15304,36,123,314
411257933,-2180,-444,14568,-174,312,12
411261403,-2984,-440,15304,-62,261,218
411264920,-2556,-504,14908,-106,198,183
411268430,-2880,-436,15184,-75,240,149
411271900,-2508,-520,14956,-76,313,162
411275370,-3016,-324,15072,-21,177,177
411278840,-2480,-532,14852,27,276,203
411282227,-2672,-452,14948,-36,210,127
411285728,-2740,-504,14996,-20,269,174
411289192,-2596,-440,14940,-126,321,111
411292720,-2812,-464,14916,-35,148,256
411296190,-2680,-472,14928,-35,302,148
411299660,-2744,-516,15012,-70,149,240
411303130,-2552,-424,14936,-63,237,126
411306600,-2836,-456,15268,6,240,185
411309896,-2516,-520,14700,-48,212,161
411313391,-2808,-332,15004,-6,297,237
411316750,-2596,-432,14892,-37,208,121
411320220,-2856,-464,15048,-8,243,216
411323603,-2644,-304,14932,-62,173,213
411327073,-3092,-452,15344,-3,174,223
411330456,-2400,-544,14560,-68,233,249
411333926,-2804,-360,14928,-141,151,149
411337507,-2612,-436,15048,42,255,255
411340866,-2660,-384,14800,-74,263,163
411344336,-2588,-484,14800,21,217,185
411347719,-3052,-504,15252,104,178,343
411351189,-2380,-484,14616,-104,250,69
411354659,-2792,-356,15124,-36,349,153
411358129,-2416,-528,14592,-131,196,149
411361690,-3068,-440,15308,-15,131,233
411365203,-2536,-440,14768,-41,227,232
411368626,-2724,-408,14912,-103,225,113
411372183,-2548,-540,14936,-14,235,250
411375653,-2648,-488,14996,-111,298,90
411379123,-2716,-524,15064,131,109,379
411382593,-2512,-528,14748,-96,322,44
411386011,-2812,-520,14976,102,108,299
411389471,-2440,-560,14568,-197,467,-53
411393003,-3148,-364,15236,25,55,395
411396299,-2248,-536,14708,-32,284,145
411399769,-2964,-388,15072,-86,170,254
411403239,-2416,-488,14704,-88,228,119
411406709,-2864,-380,15172,-69,280,185
411410179,-2636,-400,14892,58,141,251
411413587,-2624,-460,14924,30,282,138
411416946,-2608,-440,14872,47,102,296
411420329,-2520,-456,14672,-135,367,0
411423712,-3088,-408,15276,-10,172,355
411427182,-2420,-424,14640,-126,272,101
411430739,-3084,-528,15516,76,162,357
411434122,-2396,-456,14632,-158,254,69
411437617,-3128,-368,15300,86,101,312
411440976,-2148,-600,14632,-132,290,83
411444446,-3284,-300,15364,22,175,251
411447829,-2200,-640,14580,-45,376,90
411451212,-3048,-304,15016,-105,186,196
411454769,-2564,-320,14760,46,238,229
411458152,-2824,-352,15004,-173,290,36
411461626,-2908,-444,15160,63,67,327
411464966,-2576,-436,14864,-116,339,92
411468389,-2708,-456,15112,-63,142,236
411471859,-2728,-476,14832,-43,302,185
411475329,-2504,-564,14904,-81,169,183
411478799,-2776,-476,14892,7,179,240
411482095,-2736,-476,14876,15,203,231
411485478,-2704,-528,15032,-46,232,114
411488991,-2760,-492,15220,64,287,192
411492332,-2484,-388,14760,-155,224,96
411495802,-2936,-472,15332,10,148,273
411499185,-2512,-416,14560,-8,178,276
411502568,-2612,-532,15108,-127,233,86
411506038,-2840,-420,15056,7,189,316
411509335,-2424,-532,14836,-45,271,70
411512742,-2732,-504,14956,57,218,306
411516101,-2452,-596,14676,-46,273,75
411519484,-3100,-384,15272,106,75,367
411522868,-2196,-468,14740,-141,384,19
411526338,-3232,-388,15316,46,43,347
411529634,-2232,-596,14656,-38,342,133
411533104,-3152,-240,15172,-108,177,151
411536664,-2344,-560,14832,30,233,190
411540069,-2896,-332,15104,-84,193,211
411543514,-2572,-456,14868,-20,218,94
411546897,-2828,-448,15188,-42,263,226
411550367,-2660,-440,14704,-53,213,172
411553837,-2500,-464,14848,19,272,176
411557221,-2712,-404,14904,-91,262,171
411560691,-2884,-364,15056,-44,182,175
411564221,-2604,-416,14868,-57,263,225
411567631,-2884,-372,15072,-41,148,189
411571101,-2448,-492,14784,-63,291,173
411574571,-2844,-328,15092,-56,198,193
411578041,-2392,-476,14800,2,253,150
411581337,-2948,-360,15140,20,191,301
411584720,-2512,-512,14816,20,232,145
411588127,-2768,-420,14956,-13,255,192
411591609,-2744,-408,14992,-122,301,9
411594957,-2812,-432,15108,64,132,371
411598340,-2400,-544,14816,-206,346,10
411601810,-2680,-340,15140,130,24,434
411605193,-2268,-432,14592,-231,441,-31
411608750,-3000,-496,15336,59,59,353
411612071,-2372,-460,14680,-38,367,135
411615517,-3012,-388,15272,57,112,281
411618900,-2364,-604,14644,12,307,134
411622283,-2748,-476,14964,-79,306,132
411625753,-2616,-284,14828,-95,217,180
411629223,-2816,-444,15088,34,221,333
411632606,-2440,-516,14712,-48,213,114
411636076,-2960,-388,15104,-18,158,265
411639571,-2584,-424,14792,-56,242,186
411643016,-2704,-464,15064,-69,196,182
411646486,-2652,-480,15020,13,325,202
411649870,-2768,-524,15116,-38,198,167
411653340,-2748,-424,14904,112,203,275
411656810,-2640,-392,14936,-32,264,121
411660280,-2652,-500,14868,-19,171,193
411663798,-2656,-376,14864,-186,339,89
411667220,-2732,-536,15020,-4,103,284
411670603,-2580,-436,14896,-74,304,190
411674073,-2668,-468,15052,-30,162,227
411677543,-2664,-508,15016,25,269,167
411680926,-2764,-464,15176,38,134,259
411684309,-2580,-448,14784,-105,267,92
411687803,-2884,-496,15196,28,234,260
411691166,-2428,-380,14580,-121,273,86
411694668,-2824,-572,15164,-69,326,132
411698103,-2756,-392,14892,-96,162,231
411701573,-2744,-436,14988,-31,299,111
411705043,-2680,-396,15048,-71,256,223
411708513,-2816,-380,14896,-87,189,135
411711986,-2760,-404,15028,22,235,246
411715390,-2648,-436,14996,-65,223,111
411718836,-2852,-364,15192,62,288,183
411722219,-2420,-444,14740,19,262,170
411725602,-2700,-360,14900,-116,208,162
411729159,-3068,-224,15168,-133,324,159
411732716,-2636,-524,15120,7,83,294
411735926,-2600,-456,14944,-67,259,162
411739420,-2672,-456,14960,-15,151,249
411742866,-2548,-496,14820,-70,250,112
411746336,-2888,-452,15088,29,219,266
411749719,-2316,-432,14712,-68,274,91
411753102,-2656,-524,14932,118,209,298
411756572,-2592,-404,14720,-153,287,-6
411760042,-2712,-432,14948,99,102,379
411763474,-2216,-364,14404,-207,313,30
411766895,-3184,-536,15664,92,50,331
411770192,-2128,-576,14456,-178,352,137
411773749,-3112,-312,15228,30,89,272
411777045,-2404,-432,14688,39,278,226
411780428,-2772,-484,15036,-89,257,98
411783812,-2628,-508,14920,35,242,181
411787218,-2920,-468,15296,-65,199,195
411790665,-2516,-416,14588,51,230,220
411794048,-2712,-376,14980,-132,292,170
411797640,-2752,-284,14848,-11,178,178
411801075,-2692,-492,14964,-51,307,107
411804545,-2552,-504,14844,-73,124,241
411808015,-2940,-360,15120,67,120,313
411811398,-2428,-624,14812,-105,294,127
411814979,-2948,-368,15056,65,128,288
411818338,-2320,-604,14776,-57,380,123
411821808,-3024,-388,15216,33,98,282
411825105,-2464,-364,14660,-72,303,142
411828575,-2948,-480,15240,-96,213,126
411832045,-2612,-472,14828,-16,174,231
411835515,-2656,-432,14876,-121,266,151
411839096,-2592,-464,14916,-20,180,201
411842541,-2736,-508,15092,-41,259,208
411846011,-2792,-516,15124,-14,180,191
411849481,-2656,-516,14628,-68,275,138
411852951,-2864,-472,15104,49,184,274
411856335,-2508,-488,14784,-95,264,126
411859805,-2900,-232,15016,50,242,278
411863236,-2368,-456,14720,-149,259,36
411866658,-3004,-492,15256,61,117,367
411870041,-2424,-380,14644,-141,262,78
411873511,-2764,-556,15272,-92,248,170
411876981,-2452,-480,14732,-57,278,199
411880451,-2844,-472,15252,-147,305,48
411883921,-2440,-512,14864,72,193,316
411887328,-2704,-212,14688,-114,262,37
411890774,-2808,-432,15076,111,173,274
411894244,-2588,-400,14752,-91,268,164
411897749,-2868,-468,15044,-36,174,219
411901184,-2472,-504,14932,-49,294,180
411904654,-2848,-352,14912,-105,154,226
411908211,-2568,-428,15008,25,236,234
411911598,-2672,-364,14804,-92,287,176
411915089,-2872,-448,14956,55,170,199
411918448,-2504,-504,14764,-36,346,151
411921918,-2920,-384,14920,36,183,236
411925301,-2692,-452,14932,32,252,227
411928684,-2504,-484,14936,-143,273,165
411932241,-2824,-324,14880,-85,278,95
411935624,-2696,-580,15256,28,242,262
411939032,-2424,-556,14964,-154,228,95
411942477,-3028,-392,15380,113,153,344
411945947,-2320,-544,14748,-185,277,33
411949417,-3236,-452,15400,155,15,380
411952801,-2216,-620,14712,-36,310,111
411956271,-2988,-420,15016,-34,223,151
411959741,-2380,-420,14804,-62,349,109
411963260,-2928,-384,15128,-83,178,159
411966681,-2504,-556,14936,3,210,231
411969977,-2844,-460,15080,-129,257,100
411973534,-2568,-576,15060,-30,165,195
411977004,-2716,-464,14912,-157,305,154
411980561,-2868,-440,15252,61,97,240
411983857,-2300,-504,14476,-52,344,127
411987350,-3080,-372,15120,20,151,307
411990710,-2300,-444,14572,-1,192,181
411994094,-2812,-460,15020,-175,358,-4
411997567,-2336,-412,14636,-33,94,313
412000982,-2784,-508,15156,-169,427,14
412004417,-2852,-408,15104,48,52,394
412007713,-2544,-556,14972,-145,406,4
412011097,-3048,-352,15252,-3,64,310
412014418,-2456,-456,14776,-61,320,66
412017776,-2800,-424,15000,18,188,286
412021160,-2584,-336,14860,33,215,168
412024543,-2644,-456,14876,4,312,154
412027839,-2676,-540,15004,-90,222,74
412031223,-2784,-276,15028,24,228,291
412034606,-2872,-248,14868,-154,232,130
412038187,-2648,-468,15112,-9,157,225
412041546,-2652,-400,14972,-118,294,161
412045103,-2576,-388,14968,-13,156,236
412048573,-2800,-340,14944,-34,303,175
412052043,-2644,-376,14880,12,153,228
412055426,-3064,-220,15120,98,204,208
412058809,-2344,-420,14536,-63,307,105
412062381,-3016,-368,15288,69,81,283
412065576,-2284,-564,14620,-122,340,160
412069132,-3052,-440,15360,-39,131,262
412072602,-2552,-332,14808,-12,239,232
412076072,-2736,-520,15168,-71,320,130
412079542,-2540,-504,14668,-23,143,269
412083012,-2792,-364,15004,-87,313,130
412086482,-2496,-596,14816,13,144,187
412089889,-2892,-368,15024,16,332,162
412093249,-2624,-512,14816,-24,259,151
412096719,-2736,-364,14856,-38,246,134
412100189,-2800,-324,14872,-71,279,248
412103698,-2632,-620,15004,-99,206,131
412107129,-2944,-388,15136,-19,164,292
412110599,-2528,-424,14696,-85,221,130
412114093,-2684,-476,15220,38,231,215
412117452,-2604,-424,14880,-40,191,241
412120922,-2780,-412,14928,22,252,122
412124305,-2536,-520,14788,4,306,193
412127602,-2772,-332,14932,-104,207,119
412131159,-2676,-624,15060,40,284,190
412134542,-2772,-452,15032,-218,221,86
412138036,-2976,-492,15320,75,130,294
412141395,-2372,-524,14740,-144,321,95
412144865,-3072,-452,15312,-28,183,203
412148335,-2468,-568,14840,-1,328,168
412151718,-2960,-508,15068,-35,162,194
412155188,-2296,-480,14720,54,225,220
412158572,-2708,-388,15032,-98,348,27
412161958,-2828,-428,14884,59,141,282
412165387,-2876,-424,15064,-236,461,-49
412168895,-3036,-468,15312,113,14,407
412172278,-2436,-424,14628,-195,432,2
412175661,-2924,-468,15400,-32,98,278
412179045,-2520,-396,14624,-92,236,142
412182515,-2852,-368,15136,-68,228,208
412185985,-2512,-544,14844,18,198,165
412189391,-2900,-368,15196,-16,301,182
412192838,-2484,-416,14820,-96,242,40
412196221,-2992,-372,15228,85,213,272
412199604,-2336,-492,14624,-65,184,251
412203074,-3020,-452,15260,-57,191,167
412206579,-2552,-384,14676,-18,205,275
412210014,-2736,-504,15088,-67,183,153
412213509,-2376,-644,14904,-30,289,207
412216954,-3056,-368,15208,-54,166,249
412220424,-2456,-444,14788,98,189,279
412223808,-2692,-396,14972,-13,321,190
412227278,-2640,-348,14716,21,143,207
412230661,-2720,-520,15004,-121,384,39
412234131,-2640,-316,14884,-52,107,275
412237625,-2584,-496,14824,-152,349,91
412241071,-2920,-332,15056,11,159,321
412244454,-2512,-628,14888,-131,269,95
412247924,-3076,-400,15108,26,182,339
412251307,-2512,-440,14932,-9,230,122
412254691,-2804,-412,14932,75,227,210
412258074,-2600,-436,14908,-39,216,201
412261547,-2832,-392,14992,3,236,182
412264889,-2628,-432,14888,-46,317,156
412268310,-2816,-480,14856,-138,230,153
412271867,-2676,-464,15200,-18,305,212
412275337,-2492,-440,14832,-66,108,263
412278807,-2796,-404,15012,-49,268,153
412282277,-2736,-456,15092,-57,213,212
412285747,-2736,-388,14800,-16,208,169
412289240,-2804,-532,15100,-5,315,177
412292600,-2700,-476,14984,42,128,231
412295984,-2604,-484,14948,-26,307,129
412299454,-2848,-448,15116,-84,170,165
412302924,-2608,-484,14900,-51,194,202
412306397,-2872,-420,14928,-102,254,173
412309985,-2572,-524,14900,-67,178,190
412313445,-2804,-392,14964,-48,242,212
412316890,-2540,-460,14696,-33,240,158
412320360,-2836,-512,15108,-19,259,202
412323830,-2532,-340,14860,-8,261,197
412327214,-2692,-508,14884,25,189,186
412330597,-2500,-448,14648,-159,378,93
412334067,-3024,-356,15052,-49,135,221
412337561,-2516,-596,14912,-19,263,132
412341007,-2932,-440,15152,-75,163,184
412344477,-2428,-460,14748,8,215,266
412347773,-2864,-496,15168,-120,286,150
412351330,-2568,-496,14980,81,122,312
412354713,-2968,-288,15068,-87,332,130
412358183,-2752,-460,15128,65,94,313
412361480,-2484,-372,14744,-72,353,41
412364911,-3028,-556,15188,-105,253,145
412368420,-2448,-504,14856,90,147,314
412371803,-2888,-468,15144,-167,305,124
412375360,-2888,-368,14988,34,104,300
412378743,-2492,-476,14900,-75,297,89
412382126,-2932,-464,15044,-93,225,197
412385596,-2764,-448,15056,24,173,196
412389003,-2560,-252,14644,-43,292,210
412392450,-2876,-556,15200,-4,212,202
412395833,-2556,-448,14856,-23,248,169
412399303,-2836,-440,14824,-73,239,152
412402773,-2548,-472,14984,-113,226,122
412406330,-2712,-460,15168,-99,224,234
412409803,-2868,-244,14976,-61,127,213
412413312,-2548,-616,14804,-39,304,185
412416740,-2968,-456,15056,-56,164,235
412420210,-2404,-592,14760,8,270,141
412423506,-2928,-360,14988,16,271,238
412426889,-2744,-472,14980,-20,233,121
412430359,-2608,-436,14940,46,262,233
412433743,-2788,-336,14888,-149,254,61
412437237,-2816,-400,14992,-1,203,282
412440596,-2668,-492,14852,-148,294,118
412444153,-2808,-448,15284,-39,164,215
412447623,-2400,-564,14744,-37,344,95
412451006,-3064,-392,15240,-77,140,225
412454476,-2336,-444,14624,-34,322,127
412457946,-3052,-436,15356,-35,201,172
412461416,-2472,-576,14776,-1,212,148
412464848,-2752,-508,15028,-74,329,129
412468269,-2620,-516,14860,-75,215,158
412471739,-2672,-504,15016,24,197,313
412475122,-2640,-420,14792,-101,162,161
412478679,-2704,-376,14892,-77,254,116
412482149,-2796,-480,15096,-102,205,217
412485706,-2812,-528,15072,-24,218,140
412489200,-2660,-480,14964,20,272,149
412492559,-3040,-248,15124,-27,203,216
412496029,-2528,-424,14776,109,210,278
412499499,-2728,-392,14964,-134,335,96
412502969,-2716,-472,14920,-47,157,240
412506439,-2536,-424,14832,-45,287,191
412509909,-2740,-492,14880,-114,154,206
412513507,-2900,-436,14952,21,251,158
412516849,-2724,-440,15060,-65,229,170
412520319,-2652,-452,15016,23,173,163
412523702,-2732,-416,15028,-55,304,181
412527172,-2820,-544,15068,21,167,263
412530556,-2460,-520,14708,14,288,161
412533939,-2692,-400,14968,-165,277,53
412537433,-2688,-416,15016,51,123,297
412540792,-2496,-452,14952,-105,280,125
412544349,-2876,-416,14956,-34,88,281
412547732,-2592,-488,14800,-101,319,134
412551289,-2792,-608,15120,13,129,292
412554672,-2480,-312,14724,-52,324,119
412558142,-2940,-512,15128,53,220,232
412561529,-2484,-556,14688,42,214,191
412564969,-2744,-420,15052,-85,322,69
412568292,-2224,-568,14592,-136,210,140
412571849,-3132,-468,15492,-36,271,233
412575319,-2244,-472,14588,-174,246,88
412578789,-3052,-488,15276,-22,245,215
412582259,-2436,-460,14496,-71,285,186
412585729,-3088,-484,15240,-36,214,182
412589223,-2368,-532,14684,-22,314,181
412592669,-2896,-368,15176,-92,224,91
412596052,-2676,-380,15060,7,190,227
412599348,-2764,-328,14860,-139,331,58
412602818,-2736,-412,15072,39,136,289
412606202,-2596,-284,14736,-74,305,185
412609672,-2804,-448,15052,-111,266,88
412613168,-2568,-384,14840,-23,248,192
412616647,-2756,-424,15012,-92,212,132
412620082,-2668,-456,14904,42,176,259
412623465,-2680,-448,14976,-76,324,97
412626848,-3088,-464,15260,118,41,379
412630231,-2344,-556,14576,-121,427,-30
412633788,-3136,-352,15120,-86,158,236
412637283,-2548,-448,14856,-83,354,90
412640641,-2764,-512,15088,-55,78,264
412644025,-2480,-560,14752,-101,247,110
412647581,-2952,-428,15220,-132,219,139
412651138,-2500,-556,14880,-11,134,211
412654608,-2824,-364,14940,-56,342,142
412658078,-2716,-528,14992,-6,180,195
412661461,-2580,-512,14900,28,297,182
412664893,-2684,-352,14852,-103,266,162
412668401,-2900,-448,15152,-24,217,166
412671871,-2248,-588,14536,-143,373,125
412675428,-3296,-448,15384,-104,212,109
412678985,-2152,-740,14616,17,210,247
412682368,-2988,-432,14984,-256,341,-23
412685925,-3028,-500,15232,132,43,375
412689333,-2392,-540,14744,-161,373,2
412692691,-3108,-444,15356,110,42,372
412696075,-2248,-512,14520,-27,345,141
412699545,-2880,-484,15136,-114,204,93
412703015,-2564,-416,14832,-20,232,205
412706485,-2736,-336,14928,-146,260,131
412710041,-2736,-348,14824,26,121,289
412713448,-2516,-440,14812,-129,312,117
412717016,-2784,-472,15068,-112,134,243
412720538,-2540,-452,14932,-29,324,120
412724008,-2708,-548,14976,7,238,224
412727305,-2652,-320,14844,37,249,155
412730688,-2496,-560,14880,-2,306,167
412734071,-2732,-492,15008,-57,182,168
412737566,-2728,-344,14804,-105,312,166
412741098,-2708,-600,15028,-50,201,162
412744568,-2672,-432,15104,-45,180,159
412748038,-2728,-500,15088,33,152,338
412751421,-2472,-532,14648,-132,274,51
412754891,-2860,-576,15288,100,183,316
412758361,-2328,-440,14640,-48,265,94
412761748,-2880,-400,15328,109,153,309
412765263,-2360,-436,14544,-46,217,156
412768684,-2808,-396,15060,-87,206,112
412772154,-2416,-448,14772,14,159,378
412775538,-2648,-372,14916,-184,279,31
412779008,-2644,-508,14944,83,77,407
412782304,-2492,-496,14884,-230,391,-98
412785861,-2552,-536,14984,94,53,426
412789182,-2600,-384,14824,-82,387,6
412792454,-2860,-452,15108,51,91,293
412795750,-2684,-416,14840,3,307,183
412799047,-2656,-488,15016,2,138,167
412802343,-2688,-344,14968,-123,315,124
412805900,-2788,-400,15004,-96,220,172
412809370,-2576,-504,15064,-54,222,161
412812863,-2748,-412,15024,-96,286,172
412816310,-2568,-524,14836,-37,167,187
412819815,-2708,-464,15064,-1,241,196
412823163,-2788,-364,14916,-37,175,166
412826633,-2848,-412,15088,-16,238,136
412830103,-2644,-544,14880,67,230,265
412833487,-2588,-428,14784,-111,200,108
412837068,-2800,-392,14956,39,241,239
412840427,-2640,-460,14928,-106,238,165
412843983,-2796,-384,15076,-48,247,166
412847453,-2732,-440,14976,-15,202,280
412850923,-2504,-348,14732,-94,191,121
412854393,-2888,-416,15148,34,236,242
412857777,-2488,-584,14896,33,174,245
412861160,-2760,-516,15104,-7,256,168
412864591,-2476,-384,14844,20,267,236
412867926,-2736,-416,15060,-83,261,90
412871310,-2464,-520,14936,-22,272,178
412874780,-2964,-256,15084,-194,300,22
412878250,-2740,-448,15124,21,149,261
412881633,-2816,-580,15148,-96,291,124
412885103,-2640,-492,14984,82,127,296
412888511,-2596,-580,14896,-105,381,74
412891961,-2932,-448,15164,-10,133,228
412895426,-2412,-500,14728,-6,315,70
412898723,-2840,-420,15128,-42,209,203
412902193,-2732,-504,14904,-34,170,202
412905663,-2948,-400,15024,-6,237,252
412909046,-2436,-516,14864,-62,208,139
412912539,-2820,-456,15144,-32,201,271
412915986,-2492,-472,14836,-156,236,84
412919459,-2744,-464,14968,1,139,309
412922787,-2632,-436,14820,-112,347,62
412926222,-2944,-404,15164,107,90,323
412929606,-2432,-496,14720,-17,342,118
412933076,-2936,-280,15052,-13,159,206
412936549,-2484,-404,14712,-60,298,105
412940040,-2872,-480,15204,-103,212,205
412943572,-2496,-416,14740,-19,206,200
412947042,-2864,-492,15128,-108,304,159
412950599,-2332,-424,14668,-42,166,197
412954069,-2816,-412,15108,-45,218,199
412957539,-2704,-520,14996,45,149,284
412960922,-2632,-528,14904,-50,276,102
412964442,-2836,-412,15220,29,260,224
412967776,-2388,-472,14548,-106,255,89
412971246,-3160,-432,15236,109,180,327
412974716,-2264,-428,14544,-171,215,106
412978272,-3108,-556,15428,83,114,316
412981656,-2232,-500,14536,-99,239,243
412985126,-2900,-428,15220,-55,209,140
412988620,-2540,-520,14764,7,268,250
412991892,-2820,-396,15024,-2,208,155
412995275,-2508,-568,14796,77,237,212
412998659,-2836,-392,15068,-61,221,193
413002129,-2476,-456,14744,-74,205,122
413005599,-2808,-356,15036,-49,237,225
413009069,-2640,-412,15016,-48,167,179
413012562,-2532,-512,14884,5,223,250
413015835,-2632,-476,14956,-138,270,110
413019392,-2620,-448,15044,18,136,252
413022814,-2616,-412,14892,-152,336,72
413026245,-2832,-508,15072,105,79,323
413029628,-2468,-524,14772,-25,371,106
413033098,-3088,-324,15192,103,72,402
413036485,-2492,-368,14696,-80,411,8
413039803,-2760,-516,15140,-54,121,276
413043248,-2792,-424,15056,-150,263,76
413046718,-2776,-552,15108,-26,183,219
413050188,-2708,-632,14996,-70,200,124
413053658,-2748,-432,14988,11,268,248
413057041,-2324,-460,14880,-93,276,47
413060425,-2956,-376,15256,-12,231,218
413063997,-2376,-524,14788,-63,317,108
413067365,-2916,-368,15012,19,153,184
413070748,-2224,-648,14680,-63,313,116
413074218,-3112,-468,15236,-73,97,265
413077601,-2332,-564,14860,8,249,230
413080898,-2956,-436,15004,-77,145,269
413084368,-2444,-604,14780,2,251,172
413087689,-2888,-356,15000,-49,243,120
413091134,-2572,-476,14864,17,199,245
413094517,-2708,-372,15032,-60,283,142
413097987,-2696,-492,14992,-31,197,145
413101457,-2852,-504,15028,14,263,241
413104841,-2272,-428,14684,-103,248,98
413108311,-2924,-360,15052,-10,171,280
413111784,-2320,-464,14716,-166,366,18
413115274,-3072,-500,15340,-13,89,307
413118634,-2368,-540,14780,-42,272,221
413122104,-3040,-596,15432,-106,201,132
413125699,-2680,-408,14860,16,171,260
413129044,-2456,-384,14768,-193,420,-78
413132601,-3188,-464,15476,104,112,313
413136071,-2184,-488,14616,-23,360,94
413139478,-3140,-268,15044,-49,147,225
413142924,-2476,-628,15024,-38,299,100
413146394,-2788,-276,15064,-114,163,211
413149951,-2580,-448,14904,-63,205,114
413153421,-2784,-496,15124,-75,257,240
413156891,-2620,-516,14868,-40,174,187
413160361,-2752,-328,15008,-47,333,107
413163879,-2512,-404,14880,5,146,297
413167127,-2676,-476,14780,6,330,70
413170337,-2712,-504,15116,-14,197,233
413173807,-2708,-416,14872,-120,246,71
413177277,-2932,-504,15208,-4,235,293
413180660,-2360,-576,14768,-95,199,109
413184130,-2752,-484,15056,-80,283,176
413187625,-2764,-516,15004,-68,235,158
413191070,-2748,-504,15148,47,197,220
413194453,-2688,-368,14940,-4,217,183
413197837,-2760,-400,15032,-63,255,79
413201220,-2808,-384,15092,58,211,299
413204603,-2188,-476,14576,-135,273,32
413208073,-2828,-496,15256,-71,226,221
413211547,-2476,-440,14800,-107,310,118
413215123,-2988,-288,15220,-9,75,309
413218396,-2300,-504,14660,-76,305,159
413221866,-2948,-512,15316,-42,120,242
413225340,-2344,-504,14624,-3,281,189
413228755,-2940,-456,15340,-24,230,184
413232190,-2656,-468,14996,92,168,293
413235573,-2504,-476,14912,-110,419,36
413239067,-2572,-428,14872,55,25,348
413242339,-2608,-396,14844,-169,387,39
413245809,-2600,-464,15064,-15,96,353
413249193,-2568,-364,14796,-129,333,58
413252663,-2584,-436,15092,-48,177,294
413256133,-2676,-360,14884,-89,285,109
413259603,-2616,-444,14896,59,255,219
413263034,-2808,-424,15068,-10,194,194
413266456,-2704,-428,14956,21,182,278
413269839,-2980,-304,14964,-74,301,59
413273222,-2584,-552,14972,15,184,261
413276606,-2628,-500,15008,-140,251,204
413280162,-2780,-468,15084,-122,285,70
413283632,-2568,-428,14964,-17,188,305
413287127,-2548,-504,14960,-140,254,37
413290572,-2844,-476,15228,63,147,294
413293956,-2536,-496,14884,-65,189,209
413297426,-2764,-440,15244,35,161,187
413300809,-2604,-492,14872,-23,319,151
413304279,-2736,-408,15008,-1,149,189
413307662,-2536,-468,14988,6,230,249
413310959,-2616,-356,14936,-161,272,43
413314452,-2940,-476,15196,-16,118,335
413317899,-2612,-312,14880,-150,309,85
413321369,-2772,-504,15092,-22,102,313
413324839,-2612,-464,14692,-69,360,99
413328222,-2820,-456,15092,-15,193,195
413331727,-2644,-488,15004,-24,311,98
413335075,-2832,-460,15188,85,145,304
413338483,-2348,-528,14620,-108,288,34
413341928,-2940,-312,15156,-101,337,124
413345485,-2432,-616,14832,-19,118,268
413348955,-2828,-384,15072,-127,390,47
413352425,-2508,-640,15048,12,137,326
413355808,-2576,-368,14876,-102,252,76
413359278,-2872,-568,15084,41,220,286
413362710,-2564,-460,14948,-47,236,98
413366045,-3020,-380,15048,30,259,244
413369428,-2324,-420,14660,-48,329,-25
413372898,-3140,-412,15132,-1,182,300
413376281,-2316,-504,14508,-154,325,79
413379751,-3052,-472,15324,-35,168,214
413383221,-2372,-564,14760,-81,355,157
413386695,-2856,-464,15068,-116,179,146
413390273,-2736,-564,15084,40,244,216
413393631,-2660,-592,14912,-141,247,90
413397101,-2900,-436,15172,70,159,266
413400485,-2556,-552,14892,-60,334,88
413403868,-2980,-376,15092,-10,201,179
413407338,-2564,-540,14808,-1,267,220
413410721,-2752,-480,14968,-94,190,139
413414214,-2560,-532,14936,0,208,208
413417488,-2832,-488,15096,-168,264,127
413421044,-2820,-604,15240,46,129,265
413424428,-2584,-656,14988,-142,327,109
413427984,-3100,-536,15180,34,98,327
413431284,-2388,-572,14720,-43,291,100
413434786,-2968,-472,15220,-69,249,125
413438246,-2484,-328,14664,8,190,189
413441517,-2576,-444,14948,-115,367,73
413444987,-2904,-392,15028,-118,138,244
413448544,-2660,-552,14784,18,255,234
413451927,-2632,-464,14868,-153,233,155
413455484,-2656,-472,14984,1,163,242
413458781,-2804,-416,14976,-81,267,178
413462299,-2560,-572,14896,50,177,175
413465634,-2776,-524,15160,-48,368,94
413469017,-2800,-380,15036,62,176,244
413472400,-2412,-432,14800,-58,268,130
413475870,-2832,-412,15168,-26,246,253
413479340,-2548,-444,14892,-128,252,66
413482810,-2852,-496,15052,-42,203,261
413486280,-2620,-460,14792,-140,253,91
413489775,-2904,-524,15176,-78,256,221
413493220,-2720,-364,14760,-97,221,239
413496690,-2700,-464,15036,-31,263,93
413500074,-2624,-404,14944,102,200,345
413503544,-2644,-400,14844,-98,284,15
413506927,-2912,-504,15172,130,185,267
413510397,-2516,-432,14848,-161,320,46
413513890,-2992,-424,15120,41,92,323
413517163,-2580,-472,14584,-124,342,110
413520720,-3016,-456,15068,-75,122,261
413524190,-2552,-432,14864,-58,322,147
413527660,-2912,-448,14984,-58,191,143
413531130,-2548,-444,14768,10,223,168
413534517,-2824,-548,15032,-72,326,122
413538026,-2792,-396,14936,52,138,209
413541367,-2640,-548,14960,-22,300,177
413544837,-2536,-428,14804,-123,241,101
413548393,-2920,-400,15100,-36,242,221
413551863,-2464,-536,14660,-140,326,144
413555420,-2912,-432,15248,-53,181,111
413558890,-2676,-480,14760,17,239,276
413562334,-2724,-568,15028,1,221,144
413565570,-2748,-404,15008,37,227,253
413568953,-2752,-444,15160,-66,292,122
413572423,-2640,-448,14800,27,213,183
413575806,-2784,-432,15056,-79,291,175
413579276,-2768,-320,14828,-32,223,174
413582746,-2704,-512,14968,43,249,229
413586130,-2556,-428,14768,-110,177,161
413589711,-2840,-476,15084,-18,165,219
413593156,-2528,-428,14804,-111,297,157
413596713,-2852,-300,15164,66,128,224
413600096,-2348,-476,14736,-4,276,248
413603480,-3012,-380,15188,-51,214,112
413606950,-2272,-456,14528,18,256,154
413610333,-2896,-376,14948,-159,288,87
413613827,-2688,-556,14868,-1,149,233
413617186,-2716,-400,14756,-117,289,184
413620743,-2632,-440,15012,-100,154,172
413624300,-2500,-500,14884,-44,283,193
413627770,-2816,-324,15028,-42,224,198
413631240,-2500,-576,14900,63,180,218
413634623,-2856,-388,15044,90,279,268
413638048,-2404,-488,14744,-41,155,167
413641476,-3024,-360,15244,-23,324,147
413644946,-2276,-544,14608,-152,251,138
413648503,-3092,-404,15224,-26,123,258
413651973,-2468,-460,14688,-19,227,277
413655443,-2816,-424,15060,-155,292,30
413658913,-2552,-532,14820,85,206,340
413662345,-2576,-368,14828,-194,308,-29
413665853,-2740,-516,14952,175,60,408
413669236,-2388,-496,14664,-106,338,11
413672706,-2756,-472,15056,54,153,296
413676089,-2580,-384,14784,-39,285,177
413679559,-2712,-488,15036,-90,202,138
413683029,-2900,-484,15096,33,198,291
413686416,-2596,-476,14748,-132,216,163
413689994,-2804,-560,15012,-40,231,203
413693439,-2640,-360,14880,-112,342,118
413696996,-2988,-500,15260,-4,195,174
413700379,-2312,-552,14768,17,346,115
413703763,-3112,-444,15384,35,145,215
413707146,-2344,-564,14500,70,269,219
413710529,-2732,-484,15044,-140,305,88
413714024,-2800,-408,14972,33,68,350
413717296,-2540,-504,14904,-72,298,119
413720766,-2860,-416,15052,-47,129,231
413724236,-2500,-524,14884,-51,303,166
413727706,-2732,-368,15108,-110,213,160
413731262,-2708,-484,15116,49,240,237
413734646,-2724,-372,14936,-53,330,128
413738157,-2808,-544,15040,73,121,250
413741499,-2380,-440,14704,-72,372,55
413744882,-2920,-436,15076,-14,154,211
413748352,-2532,-500,14864,-66,274,122
413751822,-2824,-444,15176,-114,177,221
413755379,-2696,-436,14932,-73,191,176
413758849,-2708,-432,14972,-96,251,218
413762367,-2576,-404,14968,-35,185,143
413765789,-2792,-452,14984,-20,306,173
413769259,-2764,-412,14964,51,211,267
413772642,-2504,-340,14652,76,154,283
413776025,-2700,-520,14872,-135,330,44
413779495,-2476,-432,15000,20,99,267
413782792,-2508,-404,14644,-179,387,34
413786262,-2968,-452,15372,23,116,312
413789670,-2516,-432,14836,-102,286,132
413793202,-2688,-596,15140,-44,218,230
413796672,-2552,-412,14816,-5,194,206
413800055,-2784,-316,15048,-94,362,112
413803525,-2472,-508,14884,17,165,236
413806908,-2696,-548,15028,-33,336,89
413810292,-2868,-408,14968,-22,156,239
413813786,-2912,-296,14888,-108,300,123
413817318,-2640,-476,15076,-39,280,200
413820788,-2764,-364,14832,-148,203,142
413824345,-2856,-448,15144,52,207,258
413827728,-2456,-456,14824,-86,201,209
413831198,-2860,-484,15196,12,198,188
413834582,-2732,-568,14892,-5,249,180
413837988,-2528,-544,14912,-24,199,227
413841470,-2664,-364,14980,-75,320,150
413844905,-2624,-432,14804,-75,234,93
413848288,-2680,-440,14820,-46,250,189
413851758,-2836,-304,15028,30,159,235
413855141,-2424,-460,14800,-104,210,153
413858698,-2932,-456,15208,-70,291,192
413862217,-2644,-476,14896,-79,186,171
413865638,-2936,-348,15176,-26,331,157
413869108,-2608,-432,14864,-41,200,205
413872578,-2820,-444,14984,-43,320,42
413875961,-2696,-436,15040,40,161,294
413879345,-2836,-364,14932,-116,173,138
413882901,-2636,-540,14900,13,256,264
413886285,-2848,-448,14968,-171,282,56
413889779,-2888,-468,15100,77,88,393
413893051,-2272,-508,14780,-221,396,-11
413896608,-2888,-400,14992,39,22,377
413899904,-2352,-588,14692,-115,406,24
413903374,-2852,-444,15172,116,95,305
413906758,-2404,-348,14716,0,340,142
413910054,-2960,-396,15112,35,135,292
413913462,-2308,-440,14564,-96,263,138
413916907,-2968,-316,15080,-145,286,154
413920464,-2664,-412,14968,-48,182,202
413923934,-2720,-484,15040,-29,282,172
413927404,-2744,-428,15052,38,58,316
413930701,-2376,-512,14820,-49,337,113
413934171,-2880,-456,15188,-53,167,216
413937664,-2624,-504,14936,60,212,226
413941027,-2696,-480,14984,-55,288,188
413944529,-2636,-444,15024,-117,319,18
413947964,-3044,-404,14932,80,171,342
413951347,-2452,-412,14728,-27,193,167
413954817,-2744,-532,15196,-2,220,203
413958200,-2560,-392,14912,-65,145,281
413961674,-2756,-420,14924,-118,271,82
413965190,-2724,-464,15036,30,235,233
413968524,-2372,-448,14692,-48,219,153
413971994,-3048,-344,15268,104,205,302
413975464,-2244,-452,14504,28,186,211
413978847,-3072,-300,15064,-5,121,254
413982230,-2304,-464,14744,-108,349,112
413985787,-3060,-324,15096,-60,117,273
413989281,-2612,-448,14804,-21,228,249
413992727,-2640,-568,14992,-147,284,82
413996197,-2652,-416,14924,22,110,319
413999580,-2608,-384,14828,-124,356,55
414003050,-2788,-500,15196,33,126,313
414006433,-2604,-352,14772,87,259,188
414009817,-2688,-472,15068,-6,292,164
414013225,-2400,-496,14724,-32,182,192
414016670,-3040,-248,15180,-24,227,289
414020140,-2448,-548,14732,-133,214,130
414023697,-2916,-416,15128,17,152,253
414027080,-2548,-552,14904,-82,259,149
414030550,-2728,-344,15000,-21,215,218
414034020,-2720,-504,15076,-37,266,212
414037513,-2608,-412,14924,44,156,197
414040873,-2776,-480,14992,15,265,218
414044260,-2436,-440,14636,-57,207,117
414047761,-2928,-460,15300,-29,203,210
414051196,-2544,-464,14732,-77,231,154
414054666,-2780,-516,14952,-52,141,208
414058136,-2616,-456,14768,-43,263,215
414061610,-2708,-424,14968,-74,188,161
414065179,-2516,-592,15000,3,240,240
414068373,-2664,-480,14844,-62,246,74
414071756,-2756,-588,15156,62,217,249
414075139,-2768,-464,15036,-31,251,183
414078609,-2636,-420,14984,4,118,239
414081906,-2604,-432,14900,-180,375,61
414085376,-2988,-416,15144,-23,137,262
414088870,-2480,-444,14800,-150,358,55
414092316,-3100,-428,15228,-56,147,197
414095786,-2472,-404,14660,-23,194,200
414099256,-2696,-476,15004,-80,305,170
414102726,-2596,-404,14868,-89,201,163
414106196,-2812,-524,15096,44,288,176
414109579,-2532,-520,14992,5,231,191
414112900,-2556,-344,14824,-68,242,178
414116346,-2928,-364,15188,-43,248,196
414119816,-2416,-528,14724,-116,239,135
414123372,-3024,-368,15156,-62,284,186
414126842,-2460,-588,14764,-85,247,166
414130312,-2736,-468,14984,-62,215,167
414133782,-2472,-548,14756,-48,278,196
414137276,-2932,-420,15148,-52,236,146
414140722,-2496,-416,14820,92,252,223
414144106,-2800,-576,15152,-76,256,130
414147579,-2612,-500,14768,-19,178,200
414151084,-2700,-452,15016,-161,361,113
414154602,-2644,-412,15012,-29,139,267
414158072,-2552,-340,14796,-150,336,95
414161546,-2916,-484,15136,14,157,319
414164974,-2560,-468,14912,-71,274,112
414168396,-2836,-480,15108,51,222,274
414171779,-2384,-476,14832,-41,266,69
414175162,-2916,-432,15104,65,207,286
414178545,-2268,-420,14644,-121,290,51
414182015,-3316,-292,15240,-10,269,135
414185485,-2536,-408,14700,-101,279,161
414189067,-3048,-492,15352,-101,227,115
414192599,-2416,-380,14552,-20,289,220
414196069,-2788,-516,15068,-143,196,156
414199626,-2564,-448,14964,-13,254,167
414203096,-2784,-448,14984,-62,178,182
414206566,-2960,-336,15004,43,170,209
414209949,-2432,-544,14912,51,252,256
414213357,-2816,-128,14740,-143,179,172
414216889,-2596,-444,14952,-24,368,129
414220359,-2788,-384,14864,-102,151,220
414223916,-2688,-476,14860,-30,243,186
414227386,-2792,-452,15040,-93,251,201
414230856,-2556,-464,14888,23,135,234
414234239,-2700,-464,14988,17,261,176
414237645,-2800,-480,15032,-19,189,162
414241092,-2644,-416,14808,26,243,223
414244475,-2656,-432,14988,-44,273,171
414247945,-2600,-456,14712,12,133,230
414251364,-2676,-352,14824,-108,305,146
414254885,-2684,-544,15024,-18,170,193
414258355,-2636,-260,14752,-76,238,206
414261829,-2632,-444,14944,-22,190,214
414265344,-2564,-476,14892,-122,247,120
414268852,-3016,-508,15264,-5,248,207
414272235,-2496,-472,14720,-59,237,131
414275705,-3040,-288,15160,53,298,204
414279089,-2352,-560,14732,-108,272,57
414282559,-3344,-220,15220,-78,249,178
414286029,-2512,-456,14756,97,131,332
414289436,-2888,-444,15216,-194,290,75
414292882,-2868,-412,15020,42,105,417
414296265,-2388,-620,14612,-199,320,-7
414299735,-2964,-500,15276,74,167,354
414303118,-2328,-468,14652,-133,349,65
414306588,-2876,-620,15348,67,187,225
414309972,-2584,-380,14680,-28,279,185
414313466,-2632,-436,14800,-13,197,126
414316912,-2664,-320,14784,-63,339,166
414320382,-2476,-464,14848,-70,163,224
414323852,-2792,-436,14988,-44,291,137
414327322,-2664,-532,14896,-45,240,250
414330792,-2664,-436,14872,-59,204,157
414334262,-2892,-536,15220,0,294,158
414337581,-2640,-376,15024,45,107,301
414340941,-2708,-412,14916,26,278,173
414344325,-2568,-516,14876,-14,201,206
414347795,-2744,-332,14860,-24,264,154
414351268,-2440,-424,14652,-121,293,182
414354856,-2924,-436,15172,-68,226,115
414358291,-2348,-564,14740,-30,302,201
414361765,-2924,-360,15256,-87,169,162
414365280,-2408,-540,14684,-6,200,190
414368615,-2772,-424,15096,-187,298,43
414372085,-2848,-292,14992,26,78,292
414375381,-2596,-512,14956,-66,396,49
414378764,-2980,-476,15316,38,185,178
414382148,-2244,-628,14620,-39,341,101
414385618,-3164,-448,15316,-101,236,109
414389199,-2412,-468,14748,-27,210,188
414392644,-2804,-380,15080,-174,291,119
414396201,-2536,-524,14852,-35,121,246
414399671,-2720,-508,15004,-36,311,199
414403141,-2632,-448,15064,-4,179,155
414406524,-2732,-496,15044,7,294,190
414409821,-2596,-436,14868,-17,270,181
414413315,-2576,-352,14936,-42,221,149
414416761,-2888,-320,14988,-57,324,151
414420231,-2464,-616,14988,-9,146,250
414423614,-2792,-368,14760,-75,278,187
414427084,-2608,-452,14748,-45,176,173
414430554,-2768,-564,15056,-94,262,150
414434024,-2612,-456,14828,-67,216,198
414437517,-2696,-524,14904,-33,228,183
414440964,-2576,-560,15044,35,265,251
414444347,-2584,-404,14932,-67,284,2
414447644,-2904,-380,15128,49,224,319
414451027,-2548,-424,14708,-139,297,69
414454501,-3052,-388,15168,21,203,278
414457915,-2416,-504,14824,-98,350,97
414461264,-2784,-304,14940,-118,160,182
414464869,-2716,-516,15064,21,255,208
414468204,-2412,-348,14692,-130,204,183
414471760,-3072,-492,15284,175,123,350
414475230,-2292,-444,14580,-61,282,122
414478700,-2900,-428,15104,3,150,237
414481997,-2508,-432,14564,-95,390,48
414485380,-2876,-408,15228,-94,206,128
414488886,-2560,-356,14780,-43,271,207
414492325,-2776,-516,15092,-54,167,189
414495790,-2672,-332,14904,-46,185,204
414499260,-2836,-472,15156,-152,274,101
414502817,-2592,-572,14812,15,87,297
414506113,-2648,-392,14824,-92,371,71
414509497,-2940,-464,15296,75,140,274
414512904,-2500,-508,14800,-45,360,47
414516263,-3012,-440,15236,-16,203,170
414519733,-2424,-532,14600,-55,212,167
414523203,-3164,-488,15360,-142,300,130
414526760,-2236,-568,14660,-68,158,176
414530230,-3036,-432,15256,-140,401,45
414533700,-2680,-508,15216,26,97,313
414537020,-2664,-492,14956,-222,424,-87
414540553,-3092,-528,15420,172,113,452
414544023,-2308,-520,14400,-122,311,7
414547406,-3112,-412,15248,-34,280,199
414550876,-2240,-440,14412,-15,131,240
414554346,-3112,-404,15156,-121,439,-29
414557941,-2188,-684,14768,-6,199,272
414561286,-2908,-420,14992,-221,352,-67
414564904,-2496,-532,14800,93,141,370
414568226,-2592,-484,15008,-197,315,-9
414571696,-2724,-556,15248,135,184,329
414575166,-2532,-476,14724,-81,236,109
414578636,-3044,-408,15352,67,155,300
414582020,-2500,-352,14672,8,196,206
414585316,-2904,-332,14896,-59,299,81
414588724,-2500,-512,14916,-15,309,208
414592169,-2756,-352,14880,-111,194,161
414595726,-2584,-412,14916,-1,256,178
414599109,-2672,-476,14848,-118,201,155
414602666,-2640,-504,15056,42,124,252
414606049,-2588,-424,14812,-145,395,1
414609433,-2736,-512,15108,47,136,254
414612840,-2752,-460,14960,-84,377,124
414616286,-2736,-352,14956,-21,186,235
414619756,-2592,-372,14804,-135,356,-10
414623313,-3016,-336,15084,-4,189,288
414626696,-2748,-264,14844,-50,194,193
414630166,-2636,-568,14992,-77,302,146
414633636,-2480,-432,14836,-74,121,273
414637129,-2948,-356,15096,-71,330,126
414640576,-2332,-552,14560,22,257,204
414643959,-2940,-396,15056,-77,240,158
414647429,-2480,-436,14828,54,307,169
414650812,-2752,-464,15016,-75,241,114
414654282,-2800,-324,15060,17,202,259
414657669,-2616,-396,14800,-145,225,132
414661257,-2780,-492,15284,-8,176,198
414664654,-2444,-608,14920,-92,274,168
414668076,-2852,-432,15272,-80,237,130
414671546,-2220,-612,14800,-4,302,180
414674929,-3164,-264,15240,-86,185,138
414678399,-2448,-460,14728,79,213,229
414681782,-2716,-504,15088,-151,311,44
414685252,-2736,-392,15072,39,119,250
414688660,-2688,-380,14944,-94,337,122
414692105,-2768,-576,15084,-47,120,254
414695575,-2520,-436,14752,-76,284,162
414699045,-2952,-408,15132,-55,171,250
414702515,-2412,-508,14732,-71,257,130
414705985,-2960,-360,15384,-79,234,183
414709455,-2236,-576,14812,-15,211,161
414712950,-3096,-468,15344,-49,381,80
414716309,-2424,-460,14644,40,161,218
414719692,-2840,-356,14956,-77,323,96
414723075,-2728,-396,14884,-71,232,223
414726545,-2812,-332,14948,-154,248,109
414730102,-2668,-572,15104,22,213,239
414733485,-2764,-484,15048,-172,238,102
414737065,-2728,-480,14928,-11,186,235
414740512,-2748,-476,14988,-91,306,94
414743895,-2528,-668,14944,73,166,292
414747278,-2712,-472,14884,23,288,213
414750662,-2572,-452,14696,-59,222,92
414754045,-2928,-484,15092,22,224,264
414757428,-2220,-504,14464,-59,180,173
414760902,-3104,-376,15288,5,162,253
414764262,-2256,-424,14680,20,150,307
414767578,-2608,-412,14968,-180,344,-39
414771135,-2420,-564,14784,69,168,353
414774518,-2848,-380,14932,-140,334,-2
414777988,-2872,-576,15332,188,130,405
414781458,-2420,-508,14712,-160,337,19
414784928,-3076,-360,15268,146,55,368
414788336,-2200,-552,14572,-106,393,47
414791781,-2820,-368,15100,-186,248,54
414795251,-2544,-496,15012,60,179,377
414798634,-2504,-436,14540,-227,313,-34
414802191,-3024,-412,15364,121,54,366
414805574,-2180,-500,14484,-196,363,27
414809044,-3260,-364,15364,192,-73,553
414812539,-1964,-596,14304,-33,388,103
414815984,-3224,-364,15380,65,165,289
414819368,-1864,-508,14300,29,193,211
414822751,-3160,-248,15292,-138,299,147
414826308,-2328,-504,14756,42,127,303
414829691,-2860,-528,15104,-107,382,36
414833161,-2316,-540,14632,0,88,311
414836374,-2720,-424,14956,-121,396,-33
414839952,-2668,-580,15176,37,194,266
414843311,-2712,-472,14976,-49,244,140
414846781,-2808,-548,15296,161,194,320
414850251,-2372,-588,14852,-9,227,155
414853634,-2848,-444,15032,-75,354,86
414857017,-2552,-524,14904,-93,245,111
414860487,-2780,-480,15132,-58,262,207
414864004,-2576,-604,15076,-131,277,116
414867549,-2824,-392,15100,-45,150,234
414870984,-2692,-484,14800,-69,396,95
414874367,-2800,-496,15148,8,105,308
414877664,-2444,-360,14640,-35,355,88
414881047,-3132,-320,15308,26,146,231
414884430,-2432,-512,14748,92,146,315
414887838,-2444,-532,14764,-171,363,20
414891283,-2520,-484,14988,-7,83,308
414894580,-2668,-384,14908,-107,343,72
414898050,-2924,-512,15176,91,-1,398
414901346,-2236,-532,14480,-133,394,36
414904816,-2896,-448,15024,30,65,359
414908113,-2344,-632,14740,-80,380,0
414911413,-3148,-288,15256,-23,135,330
414914904,-2476,-508,14824,-54,267,7
414918176,-2848,-288,14944,19,329,202
414921559,-2520,-576,14972,-21,242,176
414925029,-2700,-452,15032,-60,248,231
414928499,-2760,-564,15144,-31,251,217
414931969,-2656,-480,14832,-141,243,120
414935526,-2860,-456,15080,-14,228,251
414939020,-2544,-412,14944,-125,165,149
414942553,-2860,-356,14896,14,202,228
414945936,-2580,-428,14864,-39,234,169
414949406,-2704,-472,14964,50,223,182
414952789,-2828,-372,14920,-61,340,131
414956259,-2632,-472,14864,-5,177,181
414959642,-2788,-532,14936,-10,273,214
414963160,-2536,-472,14856,-43,112,232
414966582,-2620,-484,14940,-110,239,158
414970174,-2560,-452,14936,19,168,275
414973522,-2716,-408,14780,-97,191,121
414976992,-2624,-400,14808,70,231,290
414980376,-2636,-432,14872,-114,269,95
414983846,-2576,-504,14808,156,175,346
414987340,-2388,-508,14772,-202,379,-66
414990872,-2992,-260,15052,71,84,381
414994169,-2420,-444,14732,-180,355,48
414997639,-2736,-428,15232,49,36,347
415000935,-2480,-428,14844,-72,329,137
415004405,-2972,-456,15260,1,124,288
415007702,-2400,-536,14896,-67,340,86
415011085,-2984,-396,15072,-26,178,200
415014580,-2516,-380,14744,15,239,123
415017938,-2840,-412,15256,-85,311,162
415021408,-2460,-452,14800,-66,240,80
415024792,-3020,-208,14884,-9,238,268
415028175,-2444,-616,14952,-14,178,210
415031645,-2736,-428,15116,-7,183,250
415035028,-2392,-512,14800,-178,284,105
415038609,-3224,-392,15448,67,97,326
415041881,-2196,-596,14632,-18,218,263
415045351,-2852,-432,15164,-65,192,206
415048821,-2484,-500,14840,114,230,250
415052291,-2632,-408,14700,-92,284,139
415055761,-2804,-344,14868,48,177,234
415059145,-2528,-532,14860,-133,312,68
415062716,-2892,-440,15032,-31,80,294
415065998,-2636,-440,14688,-36,320,136
415069468,-2740,-588,15244,-111,200,133
415073064,-2684,-316,14792,-4,197,290
415076408,-2736,-504,15092,-88,293,127
415079878,-2692,-312,14864,103,142,301
415083348,-2692,-480,14900,-79,337,170
415086845,-2648,-420,14892,3,185,161
415090114,-2700,-440,15036,-79,313,166
415093584,-2704,-424,14988,-37,137,238
415097054,-2592,-488,14880,-61,273,184
415100524,-2768,-360,15024,-99,275,182
415103994,-2664,-452,15060,-33,127,235
415107464,-2636,-348,14852,-59,283,180
415110934,-2780,-480,15008,-41,177,169
415114429,-2684,-464,15028,3,289,167
415117701,-2764,-476,15176,69,197,203
415121084,-2548,-352,14896,-67,247,108
415124554,-2780,-400,15004,-52,305,162
415128024,-2724,-392,14892,-70,133,224
415131494,-2832,-472,14956,-101,272,168
415135051,-2624,-520,14800,-98,301,136
415138545,-2844,-488,15164,-22,228,182
415141991,-2788,-532,15180,95,177,341
415145374,-2460,-472,14764,-121,284,21
415148844,-3104,-412,15364,34,254,252
415152227,-2532,-536,14840,-40,234,195
415155697,-2836,-456,15140,-58,311,80
415159081,-2748,-532,15012,8,245,262
415162424,-2632,-308,14832,-155,258,94
415165847,-2880,-512,15308,53,229,262
415169230,-2496,-584,14848,-136,254,57
415172704,-2924,-480,15136,-25,243,207
415176205,-2280,-604,14696,-129,301,120
415179727,-3168,-328,15136,29,193,193
415183110,-2296,-448,14804,-51,369,142
415186584,-3064,-304,15092,-21,156,192
415190075,-2256,-632,14792,-40,385,56
415193434,-2960,-400,15048,-54,158,226
415196904,-2464,-468,14872,-83,243,125
415200374,-2928,-328,15156,-111,228,178
415203930,-2408,-576,14864,-123,195,124
415207487,-2884,-308,15020,-28,279,195
415210957,-2500,-488,14932,-93,265,119
415214452,-2832,-376,15208,-7,201,225
415217810,-2500,-540,14736,-56,259,148
415221280,-2804,-336,14844,-81,191,167
415224750,-2796,-584,15032,74,285,215
415228134,-2736,-472,14904,-138,277,91
415231604,-2704,-516,15204,64,183,298
415234987,-2732,-452,14732,-102,309,142
415238568,-2652,-512,14960,8,126,261
415241840,-2612,-472,14736,-139,361,76
415245310,-2864,-468,15260,26,75,288
415248607,-2464,-472,14760,-5,319,188
415251990,-2820,-408,14996,-7,236,203
415255373,-2428,-452,14852,-24,283,91
415258756,-3124,-332,15104,20,168,333
415262187,-2344,-472,14728,-128,285,33
415265610,-3104,-340,15240,-11,263,253
415269080,-2476,-440,14648,-61,213,145
415272550,-2748,-472,15092,-96,311,133
415276023,-2600,-436,14860,-87,216,194
415279525,-2792,-408,15004,-79,267,67
415282873,-2668,-616,15140,92,253,251
415286256,-2568,-460,14996,18,127,271
415289664,-2612,-328,14692,-37,243,181
415293109,-2568,-304,14880,-135,267,92
415296579,-2920,-332,15016,-83,323,146
415300049,-2660,-460,14824,-57,208,278
415303519,-2592,-548,15056,-67,208,79
415306903,-2752,-428,15032,5,210,280
415310199,-2584,-476,15036,-79,177,175
415313694,-2672,-464,15048,10,224,179
415317052,-2596,-552,14820,23,222,230
415320436,-2568,-436,14708,-36,274,101
415323906,-2744,-392,14972,-15,319,218
415327376,-2736,-352,14696,-63,241,104
415330846,-2592,-500,15008,3,217,226
415334142,-2908,-464,15100,-21,166,266
415337637,-2520,-396,14680,-140,246,123
415341169,-2724,-500,15084,-55,234,209
415344639,-2528,-516,14928,-65,202,125
415348109,-2784,-464,14988,-1,258,213
415351492,-2536,-548,14980,-3,177,191
415354875,-2824,-392,14980,46,222,193
415358259,-2296,-604,14792,-93,256,133
415361732,-3020,-248,14992,-19,163,234
415365246,-2484,-608,14748,-50,245,245
415368669,-2716,-596,14984,-122,245,98
415372139,-2660,-472,15012,13,158,316
415375522,-2708,-452,15128,-59,238,194
415378992,-2504,-476,14712,-19,156,210
415382497,-2804,-584,15068,18,306,180
415385845,-2568,-432,14832,24,163,232
415389253,-2780,-392,14916,-47,341,170
415392698,-2592,-484,14844,-95,199,156
415396168,-2748,-424,14968,-73,280,139
415399638,-2592,-476,15032,-30,190,261
415403108,-2908,-512,14996,-116,229,108
415406665,-2496,-476,14944,-1,258,233
415410048,-2756,-384,14836,-120,189,169
415413630,-2948,-368,15124,58,211,224
415416988,-2424,-504,14832,-26,197,200
415420458,-2752,-436,15052,-78,220,129
415423928,-2508,-468,14756,91,179,343
415427312,-2640,-372,14788,-169,382,-108
415430955,-2780,-496,15184,76,131,368
415434338,-2392,-372,14872,-138,282,111
415437920,-2704,-424,14960,61,134,331
415441278,-2408,-424,14748,-145,262,121
415444835,-2936,-400,15140,-36,153,211
415448305,-2552,-552,14932,-9,296,144
415451688,-2940,-416,15332,-59,188,153
415455158,-2508,-504,14872,136,204,301
415458628,-2932,-368,14996,-150,318,118
415462232,-2784,-392,14924,-9,149,215
415465568,-2808,-512,14836,-106,323,129
415469125,-2876,-616,15216,10,133,220
415472508,-2584,-548,14844,-74,249,173
415475978,-2808,-420,15100,-112,196,179
415479535,-2608,-460,14924,-46,198,186
415483040,-2656,-420,15032,-70,288,183
415486478,-2808,-492,15100,51,125,224
415489883,-2720,-424,14852,60,302,197
415493242,-2644,-372,14908,-35,242,160
415496712,-2544,-456,14768,-101,250,144
415500268,-2868,-416,15200,-45,282,236
415503738,-2584,-524,14900,-73,153,238
415507208,-2624,-496,15020,-93,283,117
415510678,-2548,-468,14980,-3,125,302
415514086,-2788,-468,14988,-84,325,68
415517445,-2528,-568,14880,27,265,265
415520828,-2704,-488,15060,10,220,182
415524211,-2712,-372,14784,-14,287,214
415527681,-2760,-476,15028,-60,265,56
415531065,-2604,-452,14996,-32,271,234
415534535,-2864,-436,15044,-48,200,256
415538029,-2640,-472,14940,26,194,156
415541388,-2688,-552,14972,-102,258,198
415544945,-2704,-560,14992,-28,164,204
415548415,-2592,-444,14896,-33,320,182
415551885,-2796,-492,15188,-60,212,94
415555268,-2884,-356,15120,79,151,340
415558651,-2616,-488,14752,-136,413,-30
415562267,-2528,-392,14752,64,41,335
415565504,-2592,-512,14688,-148,419,26
415568974,-2988,-556,15204,-45,76,300
415572358,-2672,-392,14876,-77,275,137
415575828,-2656,-492,15056,-59,176,231
415579298,-2936,-452,15236,-85,204,131
415582771,-2636,-492,14944,50,199,290
415586186,-2612,-348,14900,-92,211,133
415589645,-2828,-272,15004,123,179,372
415593091,-2212,-464,14600,-181,403,-80
415596648,-3196,-396,15308,64,123,303
415600031,-2252,-508,14692,-126,329,140
415603588,-3028,-424,15228,-49,180,165
415607058,-2420,-544,14732,-75,323,125
415610528,-2956,-448,15148,-97,131,218
415614022,-2588,-492,14832,0,284,135
415617294,-2840,-404,15056,-48,184,172
415620764,-2680,-460,14940,97,242,277
415624147,-2524,-516,14784,-122,401,14
415627617,-2968,-300,15128,3,130,272
415630914,-2388,-444,14512,-125,389,64
415634384,-3176,-380,15484,-7,123,274
415637792,-2320,-512,14504,21,209,272
415641150,-3072,-360,15296,-126,235,206
415644707,-2452,-532,14856,68,147,238
415648090,-2948,-492,15308,-87,342,114
415651560,-2632,-360,14848,2,164,206
415654857,-2864,-564,15156,92,209,227
415658240,-2516,-472,14804,5,166,204
415661540,-2708,-492,15044,-84,361,5
415664880,-2848,-488,15068,-24,217,312
415668303,-2556,-472,14884,-147,255,111
415671860,-2984,-324,15080,13,174,324
415675243,-2572,-464,14688,-137,301,52
415678713,-2996,-460,15408,57,214,291
415682096,-2272,-472,14452,-141,334,30
415685566,-3060,-424,15316,-42,242,161
415689079,-2344,-560,14724,86,236,256
415692420,-2708,-548,14996,-188,285,24
415695890,-2712,-456,14936,62,178,269
415699273,-3064,-296,15008,-150,310,79
415702743,-2616,-444,14776,-47,113,233
415706213,-2912,-320,15040,-144,368,102
415709770,-2692,-452,14960,-16,148,225
415713264,-2676,-400,15136,-62,313,142
415716710,-2708,-540,15096,2,195,218
415720006,-2756,-472,14984,-66,244,143
415723476,-2724,-432,14756,-17,181,204
415726946,-2680,-436,14880,-23,187,178
415730416,-2616,-488,15052,-27,320,126
415733886,-2784,-404,15032,-13,82,306
415737294,-2360,-448,14888,-80,312,122
415740739,-3036,-428,15048,-51,189,264
415744209,-2464,-496,14920,-94,213,140
415747679,-2936,-468,15272,-22,238,243
415751149,-2616,-400,14780,-1,191,153
415754533,-2688,-588,15104,32,272,227
415757916,-2596,-456,14604,-33,253,135
415761389,-2876,-428,15108,68,212,197
415764818,-2584,-448,14664,-96,331,148
415768239,-2820,-492,15068,-95,178,129
415771709,-2708,-500,15248,25,242,232
415775092,-2452,-532,14784,-104,168,225
415778649,-2968,-472,15176,3,143,235
415781946,-2380,-512,14916,-23,252,219
415785416,-2676,-388,14788,-79,261,95
415788822,-2808,-408,15048,109,243,293
415792304,-2212,-628,14648,-94,273,21
415795652,-3092,-272,15164,73,87,339
415798949,-2304,-556,14540,-149,305,91
415802419,-3112,-376,15264,-65,181,212
415805889,-2372,-484,14508,-47,310,127
415809359,-2900,-428,15144,-126,211,118
415812940,-2432,-564,14908,72,200,286
415816299,-2620,-436,15020,-135,282,94
415819769,-2896,-476,15112,102,115,301
415823239,-2364,-460,14688,-46,296,115
415826709,-2920,-548,15316,5,144,214
415830005,-2404,-476,14748,-21,344,103
415833475,-2868,-440,15120,-72,193,212
415836970,-2472,-392,15024,-36,219,212
415840415,-2776,-472,15224,-78,235,188
415843885,-2528,-556,14808,-69,147,186
415847355,-2772,-308,14844,-107,309,146
415850912,-2612,-588,15040,-6,186,188
415854295,-2760,-348,14824,2,222,243
415857592,-2700,-592,15068,-4,276,87
415860888,-2588,-432,15080,52,121,326
415864320,-2572,-328,14932,-147,380,-40
415867828,-2956,-400,15168,0,76,328
415871038,-2356,-496,14740,-81,300,185
415874508,-2980,-376,15104,-30,104,273
415877978,-2408,-532,14720,-16,292,186
415881448,-2788,-484,14976,-127,270,131
415885005,-2772,-348,14908,113,148,295
415888498,-2520,-524,14960,-39,386,85
415891861,-2624,-544,15136,171,26,430
415895276,-2360,-516,14548,-143,433,-4
415898711,-3004,-356,15208,55,69,317
415902008,-2216,-564,14448,-87,345,127
415905478,-3020,-528,15352,-80,239,191
415908948,-2400,-664,14788,66,137,290
415912355,-2784,-416,14976,-55,294,208
415915801,-2492,-464,14744,-20,174,206
415919271,-2764,-408,15052,-55,284,177
415922741,-2604,-416,14892,-29,193,160
415926211,-2840,-436,15260,14,291,130
415929594,-2148,-680,14588,-126,374,21
415933064,-3300,-384,15460,-41,227,185
415936538,-2264,-584,14832,-36,342,102
415940029,-3040,-344,15304,-74,160,197
415943474,-2480,-492,14764,-14,243,212
415946944,-2940,-472,15152,-155,247,122
415950501,-2464,-428,14704,-15,131,213
415953971,-2896,-480,14956,-127,366,71
415957441,-2872,-636,15272,101,123,272
415960911,-2524,-416,14740,-17,295,127
415964430,-2588,-420,14936,-56,291,125
415967851,-2900,-360,14976,-66,248,124
415971321,-2756,-484,15140,62,221,306
415974704,-2520,-384,14788,-164,227,76
415978174,-2936,-508,15340,56,150,325
415981557,-2336,-492,14584,-133,245,109
415985114,-3064,-360,15296,-48,273,141
415988607,-2276,-460,14616,-84,317,104
415992054,-3228,-400,15236,8,208,211
415995386,-2072,-484,14468,-11,320,187
415998821,-2928,-344,15040,-151,302,1
416002204,-2752,-540,15032,17,213,311
416005587,-2756,-424,15048,-91,246,118
416009057,-2656,-496,14972,0,215,226
416012378,-2660,-516,14860,-157,297,144
416015910,-2872,-336,14912,-63,213,167
416019380,-2828,-456,14896,16,252,209
416022764,-2564,-524,14932,-67,180,198
416026234,-2776,-516,15080,42,208,247
416029617,-2492,-536,14820,-4,238,159
416033000,-2780,-260,14880,-74,287,73
416036387,-2872,-412,15028,3,254,260
416039704,-2356,-436,14680,-65,194,184
416043150,-2872,-452,15108,-22,232,235
416046620,-2576,-540,14940,-103,163,174
416050177,-2904,-324,15024,-19,145,269
416053647,-2424,-488,14892,-48,256,124
416057117,-2840,-464,15084,-6,182,200
416060500,-2672,-464,14816,64,254,235
416063985,-2568,-424,14792,-137,287,56
416067353,-2904,-332,15024,25,188,260
416070736,-2616,-476,14816,-64,189,215
416074206,-2704,-532,15032,-45,196,180
416077676,-2588,-592,14884,-106,219,201
416081233,-2696,-408,14784,-139,232,55
416084703,-2876,-464,15216,54,221,319
416088110,-2576,-412,14664,-61,226,165
416091561,-2992,-464,15240,-86,360,42
416094943,-2708,-428,15072,87,130,378
416098362,-2944,-464,14984,-165,349,-36
416101880,-2612,-512,14932,6,219,302
416105176,-2880,-340,15004,-201,238,62
416108646,-2764,-476,15104,90,225,282
416112054,-2380,-456,14644,-178,315,50
416115499,-2940,-400,15032,3,125,296
416118796,-2556,-576,14820,-118,261,129
416122353,-2764,-432,15004,12,140,234
416125736,-2584,-588,15004,7,309,160
416129032,-2688,-296,14856,-28,186,205
416132502,-2636,-460,14884,18,303,110
416135886,-2592,-352,14660,-153,284,164
416139467,-2968,-356,15212,-41,168,222
416142912,-2496,-544,14784,-68,273,211
416146382,-2872,-420,15056,-159,241,62
416149852,-2644,-500,15128,21,169,220
416153236,-2844,-456,15144,-122,269,119
416156792,-2612,-492,14880,-22,228,156
416160262,-2984,-468,15240,3,285,195
416163607,-2392,-448,14548,17,205,188
416166942,-2896,-524,15188,43,278,186
416170325,-2504,-384,14780,83,53,407
416173622,-2512,-384,14708,-181,370,-11
416177179,-2804,-624,15116,-22,176,284
416180649,-2580,-344,14804,-132,247,128
416184205,-2828,-376,14968,22,271,205
416187612,-2676,-412,14932,-17,167,172
416191059,-2656,-456,14964,16,199,226
416194442,-2952,-464,15044,-37,309,99
416197825,-2512,-540,14808,-12,181,223
416201330,-3064,-444,14936,-184,420,18
416204765,-2764,-556,15040,17,105,309
416208148,-2812,-396,14976,-75,337,106
416211622,-2748,-392,15148,15,90,332
416214939,-2612,-436,14880,-154,294,39
416218385,-2992,-528,15160,-92,212,209
416221855,-2668,-480,14864,-45,179,182
416225325,-2780,-536,14984,-72,331,106
416228795,-2748,-548,15136,77,154,254
416232178,-2632,-376,14728,-120,344,-1
416235648,-2960,-520,15228,60,166,348
416239056,-2492,-392,14636,-139,217,92
416242501,-2864,-420,15068,-75,255,249
416245971,-2468,-392,14712,-169,206,111
416249528,-2960,-536,15256,0,268,188
416252825,-2440,-480,14832,-146,261,136
416256381,-2964,-372,15068,17,277,131
416259765,-2776,-388,14984,40,219,275
416263196,-2688,-512,14772,-28,199,125
416266618,-2808,-380,14996,-7,280,187
416270001,-2584,-468,14780,-70,221,122
416273471,-2968,-556,15116,-53,263,207
416276941,-2488,-484,14960,-49,246,212
416280411,-2596,-440,14900,-81,229,121
416283881,-2760,-468,15296,-8,224,264
416287288,-2584,-504,14816,-81,153,189
416290734,-2832,-432,15172,9,275,164
416294031,-2692,-384,14844,68,173,247
416297414,-2536,-524,14924,-59,364,32
416300797,-2748,-420,15084,45,202,283
416304216,-2768,-300,14580,-115,213,220
416307737,-2936,-432,15356,44,231,282
416311121,-2324,-484,14616,-99,126,236
416314615,-2868,-416,15076,-36,226,164
416318061,-2576,-556,14904,-67,197,253
416321531,-2716,-392,14996,-34,182,156
416325001,-2636,-520,14968,63,253,282
416328384,-2664,-520,15020,-72,211,120
416331854,-2664,-404,14912,102,153,349
416335324,-2592,-548,14776,-198,376,-54
416338905,-2808,-368,15036,95,12,412
416342177,-2228,-520,14632,-159,420,13
416345647,-2760,-556,15136,75,31,347
416348944,-2312,-452,14744,-114,389,26
416352414,-3184,-340,15180,-3,120,350
416355797,-2364,-608,14576,-38,280,82
416359180,-3108,-412,15328,-132,236,148
416362785,-2544,-464,14684,60,131,255
416366120,-2560,-344,14708,-95,350,154
416369590,-3100,-396,15080,91,150,289
416372973,-2264,-440,14448,-101,342,119
416376530,-3012,-432,15324,15,161,342
416379913,-2368,-472,14536,-114,226,118
416383470,-3140,-328,15348,19,175,287
416386877,-2480,-552,14728,-3,179,214
416390237,-2836,-496,14920,-27,251,190
416393707,-2828,-428,15256,13,281,135
416397090,-2632,-544,14812,93,152,302
416400473,-2620,-400,14948,-58,328,119
416403947,-2696,-360,14800,-72,213,153
416407448,-2944,-444,15016,-25,231,234
416410883,-2652,-364,14780,-60,150,242
416414378,-2888,-516,15100,-3,193,177
416417736,-2584,-472,14852,-105,213,225
416421293,-2900,-452,15056,-15,169,184
416424763,-2532,-392,14772,-28,267,192
416428233,-2972,-416,15248,30,153,250
416431616,-2280,-404,14520,21,263,192
416435000,-2864,-572,15120,-133,325,21
416438494,-2500,-340,14512,-4,110,324
416441853,-2824,-340,14900,-169,346,59
416445323,-2608,-524,15032,-26,139,226
416448793,-2884,-484,14988,-155,323,56
416452263,-2736,-376,15080,-41,174,178
416455733,-2896,-484,15044,-23,283,180
416459203,-2468,-508,14928,-24,286,183
416462722,-2872,-404,15000,21,201,190
416466056,-2452,-456,14812,12,259,244
416469439,-2784,-536,15104,-79,242,81
416472823,-2648,-320,14812,21,168,297
416476206,-2548,-416,14932,-193,327,81
416479676,-2668,-564,14872,35,119,254
416483059,-2560,-460,14804,-150,376,77
416486533,-2764,-420,14984,38,80,307
416489849,-2476,-492,14872,-44,316,158
416493296,-2620,-452,14924,28,150,209
416496679,-2836,-424,14988,-1,284,156
416500062,-2568,-480,14808,-51,281,166
416503532,-2896,-316,15152,-104,314,24
416507006,-2656,-400,15056,53,229,302
416510420,-2616,-336,14832,-140,240,63
416513880,-2752,-408,15036,-33,214,278
416517325,-2680,-388,14800,-148,239,134
416520882,-2920,-464,15156,1,145,260
416524179,-2644,-520,14784,-116,333,89
416527649,-2892,-364,14984,43,163,223
416531032,-2588,-432,14892,29,289,227
416534415,-2480,-448,14832,-135,209,108
416537996,-2912,-404,15228,40,205,218
416541355,-2608,-496,14844,-141,252,146
416544912,-2892,-404,15300,46,155,243
416548295,-2460,-516,14760,-80,283,183
416551765,-2776,-420,15116,-67,226,150
416555235,-2548,-368,14824,-54,250,199
416558705,-2744,-384,14976,-30,135,209
416562236,-2508,-592,14956,-31,318,73
416565558,-3088,-428,15196,24,189,254
416568942,-2332,-448,14624,-98,282,90
416572325,-3124,-272,15084,-89,350,115
416575795,-2440,-700,14972,-16,119,254
416579265,-3192,-320,15352,-13,230,249
416582735,-2208,-528,14708,-22,115,277
416586205,-3088,-444,15296,-104,209,151
416589785,-2540,-384,14840,-6,284,231
416593145,-2644,-496,14816,-146,293,42
416596615,-3056,-420,15228,101,211,351
416600085,-2444,-440,14652,-81,316,43
416603468,-3052,-308,15164,-25,200,234
416606938,-2356,-504,14708,-112,332,101
416610530,-2984,-384,15264,-68,188,146
416613989,-2188,-504,14636,-38,328,169
416617435,-3124,-304,15292,-164,202,114
416620992,-2272,-432,14612,-12,213,186
416624462,-2952,-404,15176,-176,339,65
416627932,-2676,-472,14844,63,149,260
416631315,-3060,-408,15088,-50,318,184
416634785,-2488,-448,14756,-78,188,137
416638279,-2860,-364,14984,-175,440,-64
416641812,-3024,-300,15044,26,113,386
416645195,-2704,-516,15028,-182,326,0
416648578,-2956,-364,15176,52,141,400
416651961,-2696,-388,14788,-207,348,-70
416655518,-2924,-352,15300,112,107,431
416658988,-2564,-380,14700,-189,316,-12
416662593,-3128,-496,15348,68,228,219
416665928,-2060,-564,14540,-6,268,165
416669311,-3072,-292,15076,-183,306,29
416672781,-2808,-428,15220,105,191,336
416676251,-2660,-368,14920,-210,317,-1
416679721,-2828,-396,15212,54,129,307
416683105,-2728,-520,14852,-139,318,60
416686578,-2648,-360,14820,-85,136,201
416690068,-2884,-472,15032,-57,300,163
416693515,-2616,-492,14864,16,133,240
416696898,-2896,-432,14972,-19,266,155
416700368,-2724,-524,15000,76,153,307
416703751,-2544,-432,14852,-131,212,107
416707308,-2604,-416,14804,3,286,236
416710639,-2632,-460,14816,-132,242,95
416714099,-2896,-340,15044,109,130,380
416717544,-2400,-496,14840,-151,327,76
416721014,-2836,-372,15000,73,85,335
416724311,-2340,-576,14772,-187,333,40
416727781,-3180,-360,15352,106,30,396
416731164,-1992,-604,14468,-107,433,-5
416734634,-3372,-240,15468,85,4,396
416737868,-2108,-640,14428,-89,373,44
416741227,-2996,-264,15132,-138,221,92
416744697,-2460,-544,14836,15,139,276
416748080,-2860,-404,15124,-149,314,106
416751637,-2672,-612,15136,5,123,233
416754934,-2780,-484,15112,-104,346,80
416758404,-2728,-540,15200,32,176,195
416761835,-2488,-476,14992,-83,325,53
416765170,-2964,-332,15116,-32,183,232
416768640,-2664,-340,14904,-88,270,85
416772023,-2788,-392,15024,26,219,313
416775407,-2504,-376,14652,-156,271,53
416778877,-2832,-460,15188,99,165,363
416782260,-2608,-364,14624,-97,217,123
416785730,-2880,-528,15112,-104,228,171
416789310,-2784,-488,15072,8,101,309
416792583,-2876,-500,15160,-78,277,67
416795966,-2676,-456,14848,68,167,384
416799350,-2648,-484,14812,-51,256,51
416802733,-2532,-612,14968,194,95,436
416806116,-2520,-416,14548,-211,304,-2
416809586,-2832,-560,15008,83,144,304
416813012,-2580,-500,14784,-163,280,157
416816526,-2496,-528,14872,-18,134,272
416819996,-2612,-436,15060,-125,389,93
416823466,-2868,-568,15180,-7,128,290
416826849,-2564,-404,14668,-155,370,-47
416830406,-3100,-420,15308,101,174,373
416833876,-2532,-480,14784,-42,243,100
416837371,-2832,-512,15088,65,222,258
416840729,-2552,-500,14976,-56,211,142
416844199,-2720,-440,14940,-125,257,138
416847756,-2824,-500,14984,-58,310,144
416851226,-2688,-432,14976,12,122,239
416854609,-2620,-372,14752,-121,359,107
416858166,-2904,-508,15328,47,78,306
416861466,-2716,-312,14848,1,273,117
416864807,-2680,-536,15224,28,188,212
416868142,-2556,-564,15008,52,213,243
416871526,-2768,-340,14784,-104,297,160
416875082,-2700,-472,15032,2,202,143
416878379,-2728,-504,14988,-60,307,174
416881849,-2680,-516,14968,-58,89,239
416885232,-2596,-452,14872,-98,236,116
416888727,-2692,-424,15116,-66,175,247
416892172,-2596,-504,15024,-44,206,175
416895642,-2660,-516,14996,35,257,277
416899025,-2408,-528,14736,-96,288,6
416902322,-3196,-456,15408,163,94,439
416905705,-2228,-564,14580,-216,393,-128
416909349,-3116,-372,15268,65,99,373
416912672,-2220,-640,14648,-85,245,128
416916150,-2880,-480,15192,-24,117,278
416919585,-2328,-540,14716,-45,292,203
416923055,-2764,-480,15124,-88,199,150
416926525,-2840,-448,14852,62,213,275
416929908,-2636,-564,14988,-67,187,134
416933378,-2696,-524,14796,-15,196,205
416936873,-2840,-248,15036,-50,234,196
416940318,-2684,-404,14936,3,194,194
416943615,-2664,-332,14832,-85,314,193
416947085,-2876,-300,15036,-14,123,286
416950555,-2536,-484,14736,-40,262,160
416954025,-2824,-452,14984,-92,282,212
416957495,-2660,-484,14792,-38,148,195
416960965,-2816,-368,14968,-8,299,161
416964398,-2504,-536,15048,80,42,345
416967645,-2556,-352,14812,-134,407,8
416971028,-3080,-320,15396,96,134,353
416974411,-2468,-544,14572,-191,376,-57
416977968,-3104,-460,15300,93,182,359
416981351,-2388,-388,14812,-114,280,58
416984821,-2980,-392,15184,-10,221,290
416988316,-2624,-424,14740,-140,260,80
416991761,-2876,-412,15036,-50,249,171
416995231,-2632,-532,15048,-28,248,197
416998701,-2564,-528,14820,-65,237,95
417002084,-2820,-484,15032,125,227,274
417005554,-2484,-480,14792,-88,213,159
417009024,-2900,-240,14936,-101,253,142
417012604,-2700,-444,14900,-1,170,260
417015968,-2668,-488,14948,-66,165,206
417019469,-2676,-412,14936,-85,328,166
417022904,-2776,-340,14976,-65,184,214
417026374,-2760,-456,15136,-37,274,164
417029844,-2664,-536,14864,-44,274,137
417033314,-2920,-384,15324,55,167,237
417036722,-2512,-432,14628,-2,230,210
417040081,-2952,-368,15400,-71,209,144
417043551,-2332,-504,14708,-7,247,260
417046934,-2916,-312,14884,-173,218,158
417050491,-2580,-568,14936,25,102,291
417053874,-2628,-408,14724,-156,336,99
417057344,-2696,-520,14976,-18,124,227
417060814,-2792,-376,14988,19,268,217
417064300,-2660,-420,14796,-17,201,186
417067667,-2748,-504,15116,-7,288,178
417071051,-2436,-472,14864,-42,232,202
417074521,-2756,-384,14932,-63,244,118
417077991,-2580,-272,14680,-39,290,210
417081461,-2728,-368,15028,-94,230,123
417084931,-2532,-516,14904,37,178,258
417088338,-2628,-488,14888,-120,267,97
417091784,-2808,-404,14880,-75,147,271
417095254,-2640,-584,15084,23,254,242
417098637,-2540,-528,14680,-107,216,79
417102107,-2856,-344,15172,9,302,195
417105404,-2580,-396,14732,31,193,159
417108787,-2708,-452,14824,-60,242,144
417112280,-2900,-308,14940,-87,226,218
417115727,-2484,-508,14768,-90,229,108
417119200,-2960,-392,15196,54,207,324
417122619,-2264,-464,14708,-180,286,42
417126050,-3132,-324,15156,-39,227,188
417129520,-2596,-448,14928,71,115,298
417132903,-2920,-276,15268,-133,317,15
417136377,-2740,-508,15208,133,109,441
417139868,-2504,-496,14916,-168,339,-13
417143400,-2984,-356,15104,-23,256,201
417146870,-2708,-548,14944,-111,236,129
417150427,-2768,-488,15184,31,133,320
417153810,-2404,-396,14720,-195,374,83
417157280,-3096,-324,15196,-34,175,183
417160750,-2344,-492,14616,-45,277,223
417164269,-2884,-440,15084,-58,216,101
417167690,-2824,-444,15128,100,160,291
417171160,-2524,-572,14876,-172,335,-23
417174717,-2744,-468,15100,74,50,341
417178013,-2504,-448,14644,-71,335,125
417181483,-2824,-456,15120,-79,220,164
417184953,-2516,-524,14852,12,241,174
417188361,-2892,-344,15004,-96,220,132
417191807,-2524,-532,14928,-32,169,223
417195277,-2640,-580,14944,-143,326,60
417198747,-2740,-568,14956,3,111,234
417202043,-2596,-348,14844,-50,377,139
417205513,-2928,-516,15324,96,116,290
417208896,-2392,-428,14812,-33,347,129
417212390,-2788,-476,14944,-33,229,238
417215836,-2636,-396,14820,-131,233,137
417219393,-2900,-364,15136,62,178,370
417222811,-2288,-544,14940,-174,273,47
417226246,-3188,-280,15316,-31,260,204
417229716,-2384,-488,14816,-99,301,46
417233100,-3164,-280,15344,42,191,294
417236486,-2360,-548,14940,4,291,178
417239804,-2732,-364,14856,-117,269,83
417243249,-2848,-420,15160,26,197,274
417246633,-2440,-452,14628,-188,240,42
417250103,-3036,-532,15360,-28,265,222
417253573,-2328,-548,14768,-95,213,138
417257043,-2900,-420,15100,-95,245,162
417260513,-2584,-352,14756,-47,267,208
417264031,-2680,-592,14984,-39,178,190
417267453,-2612,-452,14920,-44,336,111
417270923,-2824,-496,15160,-32,206,137
417274393,-2836,-384,14952,74,137,296
417277776,-2336,-448,14692,-114,310,94
417281246,-3004,-252,15064,-18,118,276
417284716,-2504,-468,14844,-61,304,185
417288210,-2852,-412,14872,-65,188,183
417291656,-2532,-380,14776,-81,280,140
417295126,-2976,-412,15100,-103,192,142
417298683,-2432,-532,14880,-11,210,160
417302153,-3032,-444,15036,-92,358,96
417305536,-2372,-480,14680,105,87,327
417308919,-2684,-384,15096,-128,413,-6
417312412,-2804,-524,15072,13,148,254
417315772,-2764,-360,15068,-181,406,-41
417319329,-2980,-588,15284,65,117,380
417322716,-2368,-488,14736,-154,309,-19
417326304,-2996,-376,15368,98,169,359
417329652,-2440,-604,14752,-89,242,112
417333122,-2960,-392,15032,60,162,280
417336509,-2520,-536,14772,-8,225,186
417339913,-2844,-500,15044,-25,260,120
417343359,-2460,-540,14916,36,188,269
417346742,-2488,-416,14648,-179,316,-30
417350299,-3176,-484,15336,100,150,356
417353769,-2396,-464,14572,-142,265,78
417357239,-3048,-404,15180,22,79,353
417360535,-2516,-504,14744,-153,313,81
417364054,-3012,-444,15156,-65,202,201
417367475,-2472,-456,14784,19,310,196
417370859,-2836,-480,14976,-63,250,99
417374242,-2900,-504,15048,79,193,326
417377625,-2528,-472,14708,-177,326,-3
417381095,-3080,-468,15264,55,121,309
417384478,-2556,-536,14900,-81,342,103
417387973,-3096,-420,15200,29,51,313
417391245,-2396,-484,14672,-123,384,16
417394715,-2944,-380,15324,-18,115,262
417398185,-2472,-456,14716,-53,259,130
417401655,-3036,-464,15200,-67,223,189
417405125,-2476,-432,14748,-5,175,183
417408508,-2880,-464,15024,-130,348,84
417412001,-2656,-424,14988,-20,171,208
417415448,-2788,-408,14848,-117,331,107
417419005,-2716,-552,14944,-81,258,167
417422475,-2772,-416,15096,13,196,217
417425862,-2672,-392,14832,-51,248,196
417429363,-2776,-504,14920,-40,168,164
417432798,-2492,-500,14916,-72,333,115
417436272,-2720,-476,15008,14,134,308
417439676,-2512,-448,14832,30,297,140
417443035,-2924,-448,15068,-1,250,259
417446418,-2380,-420,14776,-98,247,108
417449888,-3160,-384,15144,13,208,316
417453271,-2480,-496,14828,-68,192,183
417456741,-2792,-352,14988,-74,305,141
417460211,-2600,-576,14772,-29,241,175
417463730,-2768,-408,15068,-2,198,202
417467064,-2708,-432,14972,-7,302,176
417470448,-2784,-532,15168,-47,233,135
417473918,-2724,-536,15088,76,227,234
417477301,-2696,-344,14892,-128,246,77
417480771,-2728,-476,15120,0,253,217
417484067,-2508,-668,14984,-134,313,111
417487649,-2856,-420,14992,44,138,306
417491007,-2372,-600,14840,-55,320,113
417494477,-2784,-468,15108,-65,136,234
417497947,-2728,-452,15008,-15,273,202
417501417,-2536,-548,14852,-57,247,128
417504887,-2824,-316,15152,85,135,297
417508271,-2308,-540,14556,-65,308,123
417511764,-2940,-408,15096,-10,173,202
417515211,-2592,-488,14768,-61,284,234
417518681,-2740,-448,15060,-155,227,129
417522237,-2756,-388,14788,21,143,338
417525621,-2420,-504,14812,-174,297,37
417529094,-2872,-384,14956,50,60,335
417532422,-2452,-640,14880,-127,434,3
417535770,-3188,-344,15176,119,20,385
417539178,-2388,-484,14444,-88,427,8
417542450,-3260,-480,15264,-12,150,233
417545920,-2052,-544,14300,-10,237,178
417549390,-3140,-352,15156,-219,324,50
417552860,-2388,-552,14824,-79,211,165
417556330,-3116,-348,15312,-115,276,159
417559887,-2424,-436,14704,-41,176,153
417563417,-2704,-448,15036,-105,323,173
417566914,-2704,-404,14748,-13,165,255
417570384,-2592,-568,15044,-76,299,134
417573854,-2752,-532,14928,17,224,279
417577237,-2600,-424,14868,-51,254,91
417580620,-2952,-364,14888,55,209,251
417584003,-2804,-304,14916,-102,247,95
417587498,-2616,-628,15148,-17,240,307
417590943,-2692,-276,14872,-161,211,187
417594500,-2852,-420,15200,-76,254,170
417597970,-2640,-448,14760,-52,251,198
417601440,-2684,-500,14992,-98,223,104
417604910,-2736,-432,14992,114,234,275
417608380,-2472,-472,14760,-48,248,107
417611873,-2868,-432,15044,59,155,285
417615233,-2380,-532,14752,-74,234,171
417618703,-2828,-332,14792,-112,151,208
417622260,-2624,-452,15076,-43,316,154
417625730,-2680,-432,14792,-100,150,237
417629287,-2672,-444,14884,-66,310,141
417632792,-2564,-524,15024,-74,219,244
417636230,-2872,-348,15100,-5,241,131
417639635,-2740,-532,15068,103,276,262
417643080,-2748,-436,14916,-93,273,68
417646463,-2760,-416,15008,44,193,263
417649847,-2668,-548,14868,-150,311,74
417653317,-2800,-340,14888,-69,180,212
417656787,-2620,-392,14884,-51,303,178
417660257,-2756,-376,14860,-76,180,203
417663775,-2572,-396,14940,-4,240,203
417667110,-2664,-472,14788,-73,200,144
417670580,-2796,-360,15080,43,186,264
417673963,-2612,-516,14912,-41,282,113
417677433,-3012,-420,15140,33,117,277
417680816,-2428,-516,14708,-35,320,129
417684286,-2920,-260,15100,-61,175,216
417687781,-2592,-452,14900,-56,273,170
417691231,-2900,-304,15076,-88,232,188
417694696,-2624,-360,14856,-82,187,168
417698166,-2780,-420,14944,-78,267,224
417701636,-2688,-608,14952,-34,215,125
417705106,-2860,-352,14772,14,291,202
417708490,-2576,-592,15048,-16,251,165
417711983,-2672,-448,14856,30,203,243
417715343,-2600,-520,14936,-89,391,102
417718813,-2860,-500,14896,73,106,280
417722196,-2464,-448,14960,-59,256,241
417725666,-2884,-388,15112,-70,172,189
417729136,-2488,-432,14784,-32,238,224
417732610,-2732,-536,15004,-72,289,139
417736111,-2728,-428,14956,14,173,247
417739484,-2824,-476,15056,14,312,193
417742843,-2512,-488,14876,-1,190,168
417746226,-3020,-436,14976,8,183,242
417749522,-2508,-536,14836,-91,270,115
417752992,-2860,-380,15068,-55,251,188
417756462,-2472,-568,14936,-32,274,215
417759932,-2780,-372,15156,-145,226,76
417763451,-2620,-504,14932,0,242,273
417766699,-2696,-428,14948,-94,198,173
417770169,-2704,-588,14916,17,263,191
417773552,-2808,-436,15164,-46,232,126
417777022,-2636,-420,14952,22,234,177
417780405,-2612,-352,14732,-116,275,156
417783962,-2904,-292,15176,42,180,215
417787370,-2616,-612,14916,-83,338,117
417790815,-2720,-444,14980,-58,174,221
417794285,-2596,-508,15088,-34,251,177
417797755,-2832,-416,15052,-157,234,145
417801312,-2776,-484,15144,16,160,215
417804695,-2620,-472,14900,-107,358,118
417808252,-3020,-468,15000,117,43,364
417811639,-2708,-484,14924,-54,449,-8
417815042,-2812,-420,14996,49,102,300
417818402,-2488,-412,14716,-117,384,-21
417821959,-3088,-380,15136,-85,157,273
417825429,-2704,-444,14772,-110,225,133
417828985,-2828,-404,15100,-46,258,228
417832455,-2572,-368,14740,-138,243,114
417836016,-3012,-416,15088,50,131,291
417839438,-2364,-572,14720,-67,293,120
417842865,-2992,-388,15180,-6,222,148
417846249,-2576,-444,14688,-25,351,201
417849719,-2936,-428,15104,-67,185,132
417853189,-2592,-504,14700,-14,269,129
417856659,-2916,-336,15288,-149,241,152
417860215,-2288,-624,14600,-27,131,240
417863734,-2860,-380,15336,-177,338,83
417867155,-2644,-464,14836,-38,165,217
417870625,-2868,-392,14996,-50,334,128
417874095,-2600,-456,15060,-18,207,211
417877565,-2856,-544,15196,-53,279,131
417881035,-2660,-460,14696,-75,311,167
417884505,-3160,-360,15236,-108,257,45
417888000,-2620,-436,14752,-25,213,186
417891445,-3104,-292,15156,-169,281,66
417894915,-2528,-556,14888,15,129,255
417898299,-2980,-288,15124,-257,389,-22
417901855,-2776,-540,15168,55,92,311
417905152,-2760,-472,14892,-117,381,51
417908622,-2688,-500,15136,16,134,297
417912030,-2552,-340,14852,14,262,153
417915388,-2652,-392,14824,-21,236,222
417918858,-2668,-492,14756,-100,222,103
417922415,-2896,-328,15120,-89,281,209
417925885,-2648,-504,15032,-72,164,215
417929355,-2568,-536,14884,-101,288,120
417932912,-2876,-400,15116,-35,234,255
417936385,-2600,-512,15044,-25,237,154
417939893,-2752,-452,14936,54,272,230
417943235,-2876,-352,14980,-27,183,178
417946705,-2808,-372,15020,80,204,339
417950088,-2752,-436,14792,-169,303,18
417953558,-2624,-460,14916,-6,181,302
417956942,-2592,-444,14980,-95,311,111
417960412,-2784,-384,15016,104,58,339
417963844,-2232,-624,14648,-143,431,-43
417967352,-2960,-312,15284,-27,69,331
417970735,-2516,-476,14776,-74,232,120
417974205,-2792,-496,15120,-84,235,140
417977675,-2624,-512,14912,27,197,170
417981058,-2936,-344,15052,-20,287,214
417984528,-2408,-536,14828,-8,167,228
417987936,-2900,-308,15112,-30,259,177
417991381,-2552,-424,14912,-54,107,260
417994851,-2704,-484,14900,-105,246,72
417998321,-2540,-484,14892,-16,192,318
418001791,-2760,-380,14916,-130,229,114
418005348,-2864,-440,15108,120,200,311
418008818,-2424,-516,14860,-87,342,77
418012226,-2696,-496,15012,160,72,373
418015585,-2344,-448,14512,-254,481,-72
418019141,-3276,-300,15496,98,59,333
418022438,-2096,-516,14288,-39,311,198
418025908,-3164,-480,15516,-95,197,162
418029378,-2512,-364,14796,86,135,378
418032761,-2532,-472,14844,-202,384,43
418036235,-2924,-444,15208,49,78,341
418039554,-2440,-452,14688,-126,390,23
418043033,-2796,-632,15196,49,71,322
418046294,-2516,-472,14664,10,306,151
418049677,-2840,-416,14880,-39,261,185
418053147,-2572,-372,15008,-8,233,144
418056531,-2724,-480,14916,-66,257,247
418060001,-2696,-548,15324,-77,227,95
418063486,-2836,-496,15064,54,122,331
418066767,-2536,-512,14840,-229,341,2
418070150,-3052,-344,15132,41,161,270
418073534,-2516,-496,14820,-46,327,118
418077004,-3096,-544,15484,-33,220,124
418080474,-2396,-496,14772,52,309,177
418083857,-3032,-260,14940,-94,264,57
418087265,-2848,-564,15104,170,130,413
418090710,-2716,-404,15052,-264,414,-64
418094267,-3016,-412,15320,156,13,491
418097650,-2696,-428,14756,-193,482,-98
418101207,-2936,-484,15284,-29,82,304
418104590,-2572,-440,14836,-51,248,174
418108060,-2496,-480,14880,-111,272,88
418111534,-2868,-500,15208,118,123,301
418115025,-2156,-492,14652,-99,333,61
418118383,-3152,-300,15392,105,70,366
418121767,-1972,-592,14440,-106,333,117
418125323,-3464,-168,15452,-6,14,406
418128620,-2044,-572,14428,20,216,228
418132003,-2932,-432,15256,-266,340,-55
418135560,-2476,-512,14764,51,77,306
418138880,-2712,-436,15036,-104,350,85
418142326,-2796,-432,15092,47,108,273
418145748,-2488,-440,14784,-147,417,50
418149180,-2992,-488,15156,94,58,331
418152476,-2104,-524,14416,-190,427,-75
418156033,-3080,-260,15228,-1,122,338
418159416,-2336,-596,14600,-93,296,55
418162848,-3048,-460,15372,38,186,311
418166183,-2212,-416,14468,-71,180,156
418169653,-2980,-308,15260,7,267,176
418172949,-2388,-492,14764,23,80,344
418176246,-2612,-476,14800,-74,260,74
418179629,-2752,-480,15108,65,228,278
418183012,-2564,-412,14712,-26,213,155
418186486,-2684,-412,15004,-59,350,132
418189977,-2664,-516,14968,-59,128,250
418193422,-2872,-512,15176,-87,291,130
418196892,-2804,-372,15084,14,102,357
418200275,-2400,-432,14624,-143,289,44
418203745,-2904,-476,15052,-54,222,265
418207215,-2392,-424,14716,-96,244,92
418210599,-2656,-540,14916,27,237,239
418214006,-2532,-544,14828,-11,225,139
418217452,-2768,-416,14868,57,167,229
418220835,-2592,-396,14700,-134,324,45
418224305,-2920,-176,15060,-92,171,213
418227775,-2672,-496,14944,-14,268,209
418231245,-2740,-468,14768,-72,149,194
418234715,-2672,-480,14832,-54,261,189
418238208,-2700,-408,15072,-88,248,189
418241655,-2544,-392,14864,20,188,230
418245038,-2752,-420,15160,-42,312,182
418248543,-2676,-436,14980,45,168,226
418251892,-2672,-456,14812,-31,354,129
418255362,-2760,-400,14972,-57,149,273
418258832,-2464,-440,14660,-124,328,71
418262350,-2928,-564,15204,10,157,324
418265685,-2256,-520,14648,-133,213,129
418269242,-3132,-424,15248,29,222,298
418272625,-2288,-372,14720,2,161,228
418275921,-2860,-436,15032,-83,389,23
418279305,-2396,-584,14780,39,154,343
418282688,-2736,-432,14712,-50,309,31
418286071,-2720,-612,15132,8,265,225
418289392,-2500,-324,14724,-3,173,194
418292751,-2704,-600,15064,-161,401,86
418296221,-2664,-516,15024,8,63,300
418299431,-2456,-512,14804,-152,393,53
418302901,-3000,-344,15360,-80,146,216
418306371,-2320,-516,14748,-38,251,132
418309841,-3056,-508,15300,-49,233,166
418313335,-2380,-512,14856,31,179,185
418316694,-2784,-440,14980,-49,293,199
418320164,-2652,-324,14932,-27,162,201
418323634,-2752,-376,14804,-114,370,70
418327104,-2648,-540,14880,-96,180,241
418330574,-2716,-356,14912,-73,243,158
418334044,-2664,-520,14984,-99,338,117
418337537,-2844,-432,14980,-47,169,173
418340984,-2696,-448,14832,39,235,197
418344367,-2600,-408,14980,-23,160,178
418347837,-2660,-428,14860,-20,228,146
418351342,-2732,-320,14880,-46,260,229
418354777,-2780,-340,14952,-34,250,92
418358160,-2524,-480,14808,67,243,294
418361547,-2704,-328,14996,-141,197,101
418365149,-2588,-448,14944,60,121,314
418368484,-2452,-556,15016,-209,331,63
418371954,-3064,-360,15128,54,28,334
418375250,-2460,-608,14768,-32,345,139
418378720,-2888,-492,15136,-61,168,180
418382190,-2612,-412,14804,76,247,232
418385573,-2608,-284,14804,-67,282,101
418389068,-2376,-572,14776,42,181,221
418392427,-2724,-404,14848,-281,437,-127
418396070,-2680,-520,15172,123,-62,513
418399540,-2368,-376,14768,-159,469,-16
418403097,-2564,-524,15052,-13,98,324
418406480,-2740,-440,14816,-90,356,80
418409863,-2888,-608,15240,59,171,288
418413271,-2364,-484,14632,-104,272,68
418416717,-3244,-512,15464,172,159,411
418420187,-2180,-664,14512,-87,285,72
418423570,-3224,-348,15428,-45,307,161
418427040,-2224,-484,14532,-129,271,103
418430597,-3112,-448,15452,-67,284,156
418434067,-2212,-428,14556,-104,274,188
418437647,-2872,-420,15164,-77,148,155
418441093,-2520,-480,14692,24,159,342
418444477,-2724,-444,14860,-147,262,29
418447947,-2660,-568,15024,136,160,304
418451452,-2532,-428,14588,-30,248,142
418454887,-3012,-472,15224,18,158,212
418458270,-2348,-564,14620,-78,286,129
418461789,-2948,-520,15176,-97,103,264
418465210,-2504,-460,14712,5,288,181
418468506,-2764,-460,14944,-159,200,150
418472063,-2668,-412,14852,9,182,194
418475360,-2640,-540,14972,-105,280,141
418478916,-2840,-324,15032,55,50,341
418482213,-2104,-524,14608,-82,460,-25
418485683,-3312,-324,15332,123,31,438
418489091,-2236,-564,14340,-79,385,-3
418492449,-3264,-212,15024,-98,171,223
418495919,-2436,-476,14856,-54,265,93
418499303,-2932,-412,14984,-116,285,162
418502859,-2544,-452,14848,-56,245,142
418506329,-2856,-444,15068,-39,260,178
418509799,-2592,-508,14952,-43,216,190
418513294,-2752,-428,14872,37,226,179
418516653,-2668,-460,15080,-18,274,225
418520123,-2592,-380,14772,60,142,290
418523506,-2580,-496,14812,-61,335,81
418526889,-2680,-376,14732,-10,131,263
418530359,-2460,-520,14740,-115,321,107
418533916,-2860,-284,15252,-1,163,289
418537322,-2312,-552,14720,-40,270,126
418540769,-2880,-576,15176,50,211,321
418544152,-2456,-404,14696,-64,149,182
418547622,-2840,-552,15084,-9,266,174
418551009,-2764,-480,15168,-12,214,181
418554511,-2512,-436,14680,-38,264,122
418557946,-2944,-496,15128,-22,209,233
418561419,-2556,-412,14668,-141,272,80
418564946,-2900,-456,15212,-48,261,270
418568356,-2584,-376,14784,-83,162,208
418571826,-2712,-536,15080,-164,363,24
418575296,-3088,-272,15164,55,129,365
418578679,-2428,-424,14852,-28,320,74
418582062,-2988,-328,15116,0,217,221
418585359,-2484,-604,14844,-11,226,63
418588766,-2824,-412,15056,-76,292,181
418592212,-2692,-560,14976,-65,177,187
418595682,-2740,-436,15068,-19,172,251
418599152,-2584,-512,15068,-20,216,253
418602622,-2456,-464,14900,-45,165,179
418606092,-2804,-468,15068,-107,358,80
418609562,-2560,-580,15016,-39,141,212
418613056,-2668,-376,14792,-42,315,157
418616502,-2736,-364,14860,-31,219,189
418619972,-2752,-532,15044,34,255,168
418623355,-2876,-440,14916,2,268,205
418626652,-2108,-508,14692,-120,240,102
418630208,-3020,-344,15092,6,183,315
418633505,-2412,-412,14704,-75,203,190
418636998,-2928,-392,15056,-42,217,201
418640445,-2656,-340,14796,-74,245,213
418643915,-2736,-544,14992,-77,199,147
418647385,-2544,-540,14700,-9,284,207
418650768,-2796,-484,15108,-26,201,146
418654242,-2656,-452,14940,62,207,256
418657656,-2408,-476,14952,-113,302,24
418661095,-2988,-308,15124,10,156,288
418664523,-2540,-572,14920,-127,332,109
418668031,-2844,-340,14984,6,127,280
418671328,-2576,-436,14888,-89,326,102
418674798,-2908,-436,15124,-55,178,166
418678268,-2456,-476,14776,-18,239,142
418681738,-2964,-404,15040,-48,209,255
418685208,-2640,-404,14832,26,175,208
418688616,-2700,-360,14852,-59,364,76
418691974,-2684,-468,14944,-87,192,193
418695444,-2968,-220,14936,-47,277,164
418698914,-2544,-512,15156,-61,83,346
418702298,-2688,-476,14724,-153,197,122
418705854,-2836,-444,15084,-51,287,186
418709324,-2452,-444,15044,-43,177,114
418712819,-2924,-476,15124,7,302,163
418716091,-2452,-512,15068,-58,274,103
418719561,-2920,-352,15176,20,156,270
418722944,-2312,-596,14712,-106,403,18
418726414,-2988,-484,15128,-80,169,181
418729884,-2716,-540,15036,30,305,211
418733267,-2568,-460,14904,-74,178,135
418736761,-2780,-344,15044,1,230,284
418740034,-2596,-516,14872,-124,264,148
418743591,-2736,-504,15276,-27,189,189
418747061,-2668,-568,14888,-48,264,184
418750531,-2760,-732,14964,-64,224,91
418753914,-2768,-432,14944,75,230,252
418757301,-2584,-432,14704,-25,262,126
418760802,-2972,-396,15060,-31,270,178
418764285,-2392,-500,14752,-136,257,126
418767794,-2988,-344,15164,-27,218,207
418771264,-2324,-604,14632,-84,312,165
418774734,-2776,-528,15132,-93,174,132
418778204,-2544,-532,14808,0,254,180
418781500,-2860,-456,15056,-26,196,186
418784970,-2400,-516,14776,-13,246,123
418788465,-3036,-416,15164,-61,269,201
418791910,-2512,-456,14932,-57,160,171
418795380,-3012,-452,15048,-160,404,12
418798850,-2652,-584,14984,44,160,347
418802234,-2820,-380,14932,-163,372,5
418805617,-2840,-424,15148,63,121,361
418809000,-2584,-516,14940,-207,295,0
418812408,-2988,-388,15164,18,218,262
418815767,-2432,-608,14836,-99,291,79
418819150,-3048,-412,15144,-7,266,190
418822533,-2616,-456,14880,49,106,318
418825916,-2412,-440,14556,-139,309,12
418829386,-2968,-260,15072,-44,198,267
418832856,-2600,-520,14924,-48,156,178
418836330,-2808,-528,15036,-95,309,141
418839820,-2676,-412,14936,-99,164,194
418843266,-2700,-420,15016,-52,259,187
418846736,-2652,-524,15048,32,263,208
418850120,-2544,-612,14872,40,141,287
418853503,-2900,-432,15068,-13,320,120
418856973,-2296,-532,14736,-55,218,107
418860446,-3020,-272,15224,-82,331,102
418863980,-2380,-468,14560,-91,220,152
418867383,-3120,-412,15244,0,235,194
418870679,-2360,-496,14736,-151,342,78
418874149,-3124,-432,15248,-142,213,118
418877706,-2592,-524,14876,23,237,229
418881089,-2840,-448,15084,-108,245,101
418884646,-2616,-488,14956,-16,177,209
418888141,-2784,-440,15136,-64,308,130
418891586,-2696,-544,14868,25,159,176
418894969,-2612,-348,14808,-177,436,58
418898439,-3168,-420,15216,69,98,293
418901736,-2188,-492,14484,-118,350,40
418905206,-3156,-368,15304,-85,145,227
418908676,-2404,-560,14768,-71,202,114
418912170,-2908,-492,15148,-100,286,210
418915703,-2444,-508,14692,-58,224,100
418919173,-2560,-424,14964,18,238,271
418922556,-2740,-352,14792,-61,219,195
418926026,-2676,-496,14916,41,229,164
418929409,-2864,-424,14880,-64,258,163
418932879,-2536,-432,14836,-71,185,167
418936353,-2864,-424,15164,-50,276,178
418939844,-2412,-416,14712,-98,164,169
418943289,-2776,-412,15168,-69,305,149
418946759,-2536,-508,14972,-10,214,227
418950229,-2740,-464,14916,-79,267,107
418953699,-2608,-432,14960,78,224,324
418957082,-2684,-476,14832,-10,206,162
418960552,-2812,-388,14948,-84,249,178
418964089,-2844,-420,15152,-56,265,153
418967492,-2444,-468,14888,-120,230,92
418970962,-2832,-488,15172,15,237,305
418974346,-2512,-484,14748,-99,202,120
418977816,-2924,-380,15460,12,179,264
418981199,-2448,-428,14696,-65,210,171
418984669,-2804,-432,15232,-45,157,188
418988163,-2700,-364,14860,29,275,287
418991522,-2708,-516,15024,4,197,173
418994819,-2728,-396,15000,-33,295,160
418998289,-2632,-432,14816,-129,232,124
419001845,-2724,-324,14968,13,171,200
419005229,-2556,-504,14776,-91,224,186
419008699,-2888,-352,15012,-46,141,207
419012193,-2500,-492,14848,-54,329,148
419015639,-2928,-480,15120,27,165,264
419019022,-2480,-500,14732,-52,257,124
419022492,-2872,-476,14988,31,269,253
419025875,-2388,-652,14636,5,188,152
419029172,-2972,-444,15188,-54,357,98
419032555,-2360,-476,14732,-36,155,230
419036025,-2928,-360,15084,-49,323,149
419039519,-2544,-532,14864,-82,219,215
419042965,-2700,-504,15004,-109,249,89
419046435,-2876,-568,15136,1,210,286
419049731,-2532,-520,14752,-45,231,119
419053201,-2800,-444,15204,27,175,225
419056585,-2640,-452,14932,7,293,181
419059881,-2736,-516,15000,-19,205,180
419063452,-2476,-524,14752,-43,303,187
419066860,-2872,-416,15068,-148,235,101
419070378,-2720,-504,14972,38,158,275
419073761,-2748,-376,14816,-176,292,76
419077231,-2880,-420,15140,56,104,301
419080614,-2492,-560,14892,-137,349,75
419084084,-2808,-492,14912,-53,144,238
419087579,-2524,-548,14792,-19,328,175
419091024,-2984,-424,15172,-30,202,131
419094494,-2508,-424,14768,-4,244,146
419097878,-2876,-320,15052,-126,351,52
419101348,-2572,-532,14944,-14,82,301
419104731,-2604,-536,14884,-55,359,106
419108201,-2844,-364,15100,-41,130,262
419111695,-2704,-460,14832,9,294,154
419114967,-2652,-568,15104,-83,204,151
419118437,-2584,-504,14928,-17,179,209
419121907,-2840,-472,15012,-49,289,166
419125377,-2380,-516,14672,23,185,212
419128761,-2812,-448,15112,-71,371,98
419132144,-2616,-340,14932,-91,228,172
419135614,-3076,-476,15264,-27,221,228
419139108,-2552,-472,14916,-70,252,179
419142554,-2736,-492,15056,-169,265,33
419146024,-2776,-496,15028,31,230,270
419149407,-2676,-632,14916,-150,277,0
419152790,-2904,-400,15216,135,144,363
419156260,-2588,-464,14840,-109,421,39
419159730,-2824,-516,15160,105,86,363
419163161,-2368,-448,14664,-128,373,64
419166587,-3004,-380,15196,20,139,283
419170002,-2328,-532,14840,-116,339,63
419173437,-3028,-328,15208,-6,121,262
419176820,-2348,-576,14732,-35,241,162
419180290,-2908,-524,15148,-66,259,241
419183760,-2524,-496,14692,-7,148,199
419187168,-2932,-428,15312,51,227,239
419190527,-2576,-432,14748,51,181,225
419193910,-2528,-336,14880,-56,273,75
419197293,-2784,-408,14880,-35,305,206
419200763,-2716,-516,14872,-57,205,171
419204233,-2644,-392,14996,-84,285,174
419207703,-2840,-408,14936,-40,126,248
419211177,-2672,-584,14976,-139,310,52
419214668,-2876,-372,15176,14,131,341
419218026,-2368,-456,14788,-66,258,52
419221410,-2940,-404,15004,55,267,278
419224793,-2492,-536,14872,-44,240,121
419228263,-2596,-392,14748,-4,228,226
419231646,-2804,-212,14788,-98,236,147
419235116,-2860,-420,15008,-8,181,229
419238524,-2628,-440,15020,-10,223,273
419241969,-2664,-424,14868,-127,264,96
419245439,-2820,-380,15008,17,214,226
419248823,-2544,-524,14816,-189,328,55
419252293,-3080,-384,15164,12,172,209
419255676,-2408,-572,14900,15,260,247
419259059,-3052,-360,15136,-18,210,159
419262576,-2420,-464,14732,124,192,319
419265999,-2924,-460,15180,-157,333,66
419269469,-2704,-492,14864,37,91,325
419272801,-2508,-380,14728,-94,335,125
419276236,-2656,-428,14976,-61,109,248
419279706,-2564,-460,14672,-116,269,127
419283262,-2908,-508,15068,12,152,279
419286670,-2292,-552,14780,-114,322,-27
419290207,-3180,-372,15500,152,149,396
419293672,-2140,-388,14388,-160,339,16
419297142,-3464,-292,15644,55,214,266
419300526,-1960,-568,14336,-43,161,193
419303996,-3548,-372,15564,-47,148,272
419307466,-2280,-452,14496,57,136,299
419310849,-2832,-320,14860,-185,268,61
419314343,-2636,-492,14860,61,175,349
419317702,-2564,-396,14808,-144,230,105
419321259,-2764,-452,15136,100,209,284
419324729,-2484,-440,14748,-89,333,64
419328112,-2840,-488,15112,31,224,192
419331495,-2584,-456,14888,-76,263,136
419334965,-2952,-432,15036,-55,168,198
419338460,-2496,-592,14964,0,263,240
419341732,-2640,-332,14732,-117,230,131
419345289,-2744,-464,15044,-3,200,241
419348672,-2568,-496,14780,-104,314,133
419352229,-2880,-332,14992,10,164,214
419355612,-2560,-532,14856,12,333,181
419358995,-2832,-492,15112,48,106,258
419362426,-2336,-456,14660,-70,352,128
419365848,-3036,-416,15188,-65,191,182
419369318,-2552,-364,14788,-12,182,267
419372827,-3000,-424,15184,-51,344,129
419376258,-2540,-652,14976,10,43,370
419379555,-2696,-260,14812,-140,325,90
419383025,-2524,-444,14852,4,61,354
419386238,-2684,-300,14852,-96,370,45
419389642,-2968,-472,15164,97,164,341
419393001,-2628,-384,14848,-7,280,105
419396384,-2812,-292,14980,-12,186,289
419399854,-2776,-452,15144,-168,369,-55
419403411,-2836,-380,14980,43,131,452
419406794,-2828,-304,14976,-205,337,-31
419410351,-2920,-552,15208,104,81,423
419413759,-2680,-504,15040,-241,387,15
419417204,-3020,-588,15164,31,163,248
419420588,-2368,-504,14760,-66,358,98
419423971,-3008,-444,15336,-15,190,121
419427441,-2668,-452,14724,54,206,285
419430824,-2664,-508,15128,-159,357,-35
419434381,-2756,-436,15064,18,117,300
419437789,-2704,-476,14872,-135,383,78
419441234,-3028,-452,15236,-30,150,239
419444704,-2572,-568,14864,-99,324,145
419448174,-2836,-516,15068,-57,123,190
419451644,-2776,-520,15172,-39,258,166
419455114,-2820,-344,14876,-7,145,312
419458497,-2548,-532,14948,-43,251,74
419461928,-2896,-352,15032,104,187,350
419465351,-2408,-508,14600,-137,270,44
419468821,-2804,-516,14936,-48,252,215
419472291,-2416,-476,14772,-187,329,43
419475795,-2796,-516,15020,94,8,427
419478970,-2364,-412,14580,-223,353,37
419482440,-3012,-344,15388,63,68,336
419485737,-2408,-484,14676,-80,359,127
419489231,-3016,-420,15280,9,159,203
419492503,-2356,-592,14872,-41,365,75
419495887,-3172,-352,15244,29,89,338
419499183,-2064,-664,14516,0,347,92
419502393,-3184,-216,14944,-85,186,270
419505863,-2420,-532,14812,8,200,176
419509159,-2756,-464,15108,-83,265,216
419512654,-2524,-488,14756,-37,137,222
419516099,-2884,-456,15060,-127,352,105
419519656,-2508,-540,14788,-26,160,214
419523126,-2612,-420,14704,-136,339,71
419526596,-2656,-548,15000,69,199,267
419529979,-2516,-336,14648,-55,215,137
419533449,-2808,-420,15044,49,240,255
419536857,-2592,-420,14848,-129,195,143
419540389,-2712,-456,15056,0,177,205
419543686,-2476,-492,14748,-118,200,232
419547243,-2824,-432,15032,-79,202,133
419550713,-2564,-664,14812,12,259,260
419554096,-2800,-568,14840,-71,239,67
419557479,-2660,-572,15112,71,230,265
419560862,-2648,-412,14852,-42,147,242
419564392,-2764,-360,14736,-113,309,24
419567802,-2788,-420,15164,-20,239,232
419571272,-2408,-516,14716,-92,206,136
419574742,-2932,-448,15060,63,189,308
419578161,-2380,-336,14516,-204,287,35
419581596,-2916,-364,15268,37,138,327
419584979,-2328,-308,14580,-146,242,134
419588560,-2900,-492,15164,10,170,201
419591919,-2596,-624,15064,63,249,261
419595302,-2636,-352,14608,-26,181,146
419598772,-2604,-452,14812,30,298,174
419602155,-2584,-444,14732,-146,293,110
419605712,-2944,-464,15176,-49,159,267
419609182,-2480,-484,14800,-138,351,78
419612677,-2836,-472,15252,-93,138,212
419616122,-2584,-404,14876,-14,247,171
419619592,-2620,-472,14976,-93,266,101
419623062,-3000,-304,15112,59,69,376
419626359,-2696,-460,14880,-50,320,88
419629742,-2736,-576,14988,39,153,266
419633125,-2412,-440,14616,-115,364,80
419636620,-2808,-364,15228,20,117,233
419639978,-2572,-444,14728,-103,331,116
419643535,-2984,-424,15040,-1,142,276
419646918,-2332,-584,14660,-53,252,159
419650388,-3004,-484,15352,-70,232,218
419653858,-2488,-480,14848,80,75,335
419657155,-2456,-452,14784,-88,368,24
419660538,-2640,-440,14952,141,18,451
419663968,-2316,-588,14588,-115,401,-26
419667478,-2784,-480,15144,13,183,255
419670861,-2632,-320,14824,-80,292,73
419674245,-2828,-476,15256,4,180,357
419677541,-2624,-340,14752,-104,181,134
419681133,-2792,-436,15116,-1,208,244
419684481,-2476,-464,14920,-18,154,178
419687976,-2700,-460,14904,20,213,161
419691334,-2476,-664,14996,-17,191,239
419694804,-2648,-340,14836,-15,228,154
419698274,-2848,-424,15016,25,293,204
419701658,-2588,-452,14800,-84,206,144
419705128,-3080,-376,15220,-20,249,266
419708598,-2404,-564,14924,13,140,238
419712005,-2808,-400,15000,-33,199,166
419715451,-2604,-376,14992,-77,265,190
419718921,-2656,-496,15084,-49,165,181
419722391,-2680,-528,14964,15,280,218
419725774,-2612,-544,15072,-58,303,111
419729244,-2940,-372,15028,33,215,246
419732627,-2660,-568,14708,55,179,277
419736011,-2896,-364,15072,-175,276,51
419739505,-2820,-544,15064,23,189,321
419742864,-2504,-360,14664,-207,237,73
419746334,-2944,-396,15196,17,191,264
419749717,-2544,-384,14620,-96,264,172
419753187,-2716,-432,14976,-17,152,227
419756657,-2632,-480,14840,-54,301,133
419760127,-2556,-556,15108,23,174,197
419763558,-2532,-504,14924,-19,363,119
419766980,-2640,-384,14852,-25,127,268
419770450,-2580,-544,14824,-117,351,12
419773920,-2796,-564,15116,24,196,332
419777304,-2612,-504,14940,-69,226,144
419780777,-2724,-516,15032,-35,234,227
419784279,-2724,-436,15012,-104,217,115
419787825,-2700,-516,15044,-14,209,237
419791270,-2872,-304,15036,-101,293,113
419794827,-2684,-360,15072,24,156,239
419798210,-2612,-476,14920,-4,331,183
419801594,-2756,-412,15056,37,158,229
419804977,-2812,-332,14876,-94,324,93
419808360,-2832,-528,15152,7,108,278
419811681,-2472,-548,14668,-113,277,106
419815213,-2768,-556,15224,-35,157,243
419818683,-2460,-456,14816,-107,242,105
419822240,-2884,-372,15200,-10,240,225
419825710,-2408,-484,14712,-59,239,84
419829093,-2796,-480,15096,28,279,193
419832477,-2716,-512,14928,-2,176,200
419835860,-2812,-332,14796,-42,232,187
419839354,-2820,-436,15052,-74,276,172
419842800,-2300,-480,14888,-33,151,244
419846270,-2804,-468,15016,-166,354,78
419849740,-2736,-464,15108,27,99,271
419853036,-2520,-288,14884,-121,316,87
419856506,-2992,-464,15200,51,214,274
419859890,-2380,-576,14760,-26,258,119
419863407,-3028,-416,15128,-40,267,169
419866830,-2340,-552,14616,-19,194,179
419870300,-2844,-420,15004,-71,363,67
419873683,-2708,-456,14976,-4,170,287
419877066,-2664,-436,14784,-160,280,73
419880536,-2992,-404,15084,23,176,320
419883923,-2536,-560,14832,-122,219,102
419887519,-2940,-356,15116,-14,223,271
419890946,-2668,-408,14812,-39,230,119
419894416,-2784,-552,15236,101,145,251
419897886,-2320,-500,14660,-71,308,128
419901356,-3020,-352,15272,9,215,190
419904653,-2392,-472,14488,-111,377,114
419908209,-3068,-484,15312,-92,215,165
419911704,-2304,-424,14536,1,231,247
419914976,-2692,-496,15004,-160,251,43
419918446,-2860,-412,15272,15,128,284
419921829,-2636,-492,14876,-102,335,97
419925299,-2868,-496,15108,12,144,198
419928682,-2600,-432,14752,15,286,209
419932066,-2868,-496,15124,-14,211,178
419935536,-2412,-584,14628,-46,285,103
419939030,-2844,-468,15200,-161,277,162
419942562,-2628,-548,14924,-56,146,226
419946032,-2716,-492,14912,-104,298,160
419949589,-2620,-468,14860,-96,173,162
419953059,-2596,-424,14908,-11,300,139
419956529,-2836,-384,15156,-4,180,210
419959912,-2576,-504,14832,-26,189,185
419963432,-2920,-348,15288,38,234,311
419966766,-2492,-416,14580,-61,263,60
419970149,-2872,-416,15136,-37,298,156
419973619,-2468,-460,14840,-10,181,231
419977089,-2624,-504,14948,-103,306,67
419980559,-2548,-524,14848,26,178,410
419983942,-2640,-416,14820,-203,287,0
419987349,-2892,-428,15316,120,125,369
419990830,-2416,-520,14704,-164,342,-48
419994352,-3144,-504,15316,153,80,382
419997735,-2548,-364,14924,-88,353,53
420001119,-3092,-424,15144,61,94,332
420004415,-2316,-448,14560,-184,475,-28
420007972,-3136,-496,15280,-99,186,172
420011445,-2224,-488,14512,25,177,278
420014850,-2768,-444,15016,-239,310,13
420018295,-3048,-492,15236,107,58,386
420021678,-2316,-472,14768,-175,408,0
420025062,-3120,-464,15324,21,113,256
420028445,-2420,-508,14688,-60,391,88
420031828,-2976,-400,14964,-47,184,171
420035298,-2648,-384,14896,-8,255,177
420038706,-2640,-488,14880,0,144,243
420041978,-2596,-432,14820,-66,287,116
420045448,-2620,-484,15044,7,267,264
420048744,-2504,-500,14872,-136,206,115
420052301,-2688,-488,14960,-15,205,260
420055771,-2608,-320,14836,-133,271,60
420059241,-2916,-300,15236,44,111,323
420062739,-2640,-560,14804,-96,396,36
420066008,-3008,-320,15212,59,137,273
420069391,-2480,-308,14692,10,317,168
420072774,-2880,-488,15044,-94,184,128
420076244,-2684,-480,14844,-14,257,176
420079714,-2728,-552,15144,-117,212,150
420083271,-2568,-480,15024,-61,134,242
420086764,-2696,-472,15044,-120,341,95
420090231,-2772,-472,15040,63,42,340
420093546,-2420,-588,14648,-69,368,85
420096891,-3000,-448,15140,-27,180,150
420100361,-2324,-612,14812,25,193,263
420103744,-2756,-320,15044,-157,299,50
420107214,-2392,-444,14680,3,104,317
420110510,-2788,-488,14976,-151,428,-6
420114005,-2956,-400,15232,32,73,323
420117277,-2600,-440,14780,-158,373,16
420120747,-2940,-460,15280,45,45,340
420124043,-2220,-524,14616,-148,355,13
420127513,-2972,-376,15240,11,154,319
420130897,-2388,-500,14728,-54,267,89
420134280,-2928,-392,15096,7,265,260
420137601,-2352,-468,14676,36,194,155
420140960,-2868,-348,15152,-73,240,183
420144430,-2648,-500,14900,-37,174,217
420147900,-2812,-464,15052,-42,178,190
420151370,-2568,-516,14856,-98,250,212
420154840,-2728,-348,15100,-74,165,170
420158310,-2692,-452,14988,-23,302,146
420161828,-2728,-568,15044,-25,227,158
420165250,-2736,-404,15016,67,247,206
420168633,-2528,-636,15020,10,151,236
420172016,-2668,-308,14828,-74,248,83
420175399,-2808,-452,15040,-66,249,229
420178869,-2568,-452,14820,-108,212,150
420182426,-2888,-444,15180,-72,222,255
420185896,-2604,-372,14856,-103,235,147
420189476,-2728,-524,15112,-5,234,191
420192836,-2716,-396,15044,27,235,232
420196254,-2552,-388,14820,-60,222,115
420199689,-3044,-352,15164,73,185,318
420203073,-2576,-428,14632,-178,362,-66
420206629,-2960,-464,15120,28,169,303
420210013,-2692,-388,14744,-177,318,78
420213507,-2796,-424,15220,-1,157,206
420216866,-2612,-536,14904,-66,292,183
420220336,-2748,-516,15196,-79,204,145
420223806,-2728,-524,15016,28,187,257
420227189,-2720,-508,14976,-57,266,122
420230659,-2536,-372,14920,46,147,302
420234042,-2876,-336,14952,-28,331,134
420237537,-2672,-508,14916,73,137,304
420240896,-2944,-332,14968,-40,335,140
420244366,-2608,-512,14824,-18,113,251
420247836,-2716,-364,14988,-79,236,216
420251306,-2640,-484,14864,-69,200,193
420254776,-2696,-396,14936,-61,167,195
420258246,-2652,-568,14988,-70,265,171
420261764,-2764,-504,15052,-9,173,188
420265099,-2560,-508,14912,-34,325,162
420268569,-2776,-548,14976,26,135,217
420271952,-2524,-556,14840,-27,266,149
420275422,-2616,-492,14804,-68,218,243
420278892,-2904,-276,15108,-9,125,233
