Time,Accel_X,Accel_Y,Accel_Z,Gyro_X,Gyro_Y,Gyro_Z
25894704,-3232,1956,14760,134,-129,228
25898174,-3176,-1272,16124,-258,172,-327
25901817,-2664,864,15000,-159,125,-198
25905287,-2944,1304,16324,-66,58,-22
25908584,-2392,1384,15808,-226,279,-167
25912140,-3300,1416,15376,98,166,141
25915461,-3672,-1008,16676,-105,282,0
25918820,-4044,12,15888,-62,248,-128
25922116,-2368,1984,16384,-246,-16,-172
25925673,-2868,1216,15508,23,-176,88
25928970,-2812,2464,15140,80,-5,184
25932180,-3704,-1660,16400,-201,19,-217
25935736,-3176,440,15036,-127,346,-145
25939231,-2752,1008,16452,-185,10,-394
25942676,-2524,1432,15732,-228,345,-166
25946233,-3024,1860,15412,-131,94,-162
25949703,-3544,-84,15880,-35,169,7
25952826,-4100,612,15804,-13,184,62
25956036,-2776,580,16708,-230,61,-342
25959419,-2904,1304,15528,-99,-26,-21
25962806,-2920,2384,15740,51,-96,149
25966148,-4060,-1752,16360,133,-64,184
25969569,-3388,312,14892,-118,254,-33
25972952,-2316,544,16000,-185,14,-276
25976335,-2524,924,15328,-303,303,-199
25979805,-2904,2060,15544,34,153,9
25982928,-3988,-1116,16536,-99,232,-55
25986398,-3932,1096,15696,61,279,194
25989737,-3168,-324,16636,-296,-5,-416
25993165,-3088,1104,15528,-58,-24,0
25996375,-2944,2036,16100,-40,-52,59
25999671,-4036,-1460,16824,20,-33,56
26002968,-3020,288,15044,-214,272,-227
26006438,-2468,-324,16184,-201,8,-393
26009821,-2448,1256,15324,-228,279,-92
26013315,-2752,1704,15972,-116,115,-189
26016848,-3624,108,15980,-1,219,147
26020057,-4172,-412,15856,102,145,353
26023441,-3212,-708,16648,-299,199,-553
26026997,-3048,1092,15560,-7,-92,152
26030294,-3016,1308,16608,-144,54,-172
26033764,-3876,-512,16248,116,-214,195
26037234,-3352,1048,15200,-5,197,157
26040555,-2988,-900,16456,-231,109,-444
26044087,-2496,1252,15412,-191,268,-104
26047644,-2652,1184,16152,-214,230,-325
26051200,-2620,1284,15672,-104,22,-195
26054671,-3336,2236,15400,154,138,447
26058054,-4376,-1504,15944,-52,113,-134
26061611,-3388,1012,15524,79,7,155
26064836,-2900,752,16688,-284,156,-250
26068204,-2432,1436,15368,20,-138,-52
26071587,-3168,1604,15204,-42,193,193
26074970,-3356,-1408,16620,-55,199,-88
26078440,-3584,236,15892,-153,354,-93
26081823,-2420,1040,16084,-338,300,-334
26085380,-2868,808,15752,-117,196,-221
26088873,-2964,2788,15400,-144,-86,-61
26092359,-3940,-596,15520,86,90,89
26095443,-3704,796,15344,96,-40,165
26098653,-2796,172,16488,-214,141,-223
26102123,-2276,1180,15352,-108,-44,-183
26105679,-3036,2016,15548,-114,-85,-49
26109150,-3180,0,15672,-39,274,13
26112186,-3736,272,15588,-84,199,-57
26115507,-2496,528,16028,-336,378,-407
26118952,-3192,616,15628,-128,122,-219
26122422,-2748,2808,16096,-2,-12,198
26125719,-4264,-1460,16024,12,-47,121
26129102,-3580,1068,14716,198,-3,200
26132399,-2764,-340,16448,-266,28,-304
26135869,-2368,1040,15164,-135,84,-206
26139363,-2896,1896,15828,-85,79,84
26142548,-3660,-964,16260,-98,183,-33
26145932,-3428,1004,15408,40,263,118
26149228,-3116,-584,16424,-404,341,-468
26152785,-3512,264,15656,-140,277,-311
26156255,-2724,2688,16156,3,-110,172
26159551,-4172,-1352,15904,99,-57,130
26162983,-2988,2040,14784,130,-65,181
26166318,-3272,-1400,16440,-235,146,-302
26169961,-2832,552,15116,-236,240,-295
26173431,-2732,1728,16128,-188,-62,-315
26176988,-2456,1136,15512,-174,313,-87
26180458,-3172,1496,15028,-8,81,-62
26183668,-4020,-1004,16504,-47,299,40
26187051,-4044,112,15624,-107,191,-172
26190544,-2344,2204,16248,-315,177,-498
26194113,-3016,1208,15452,54,-178,107
26197461,-3056,2224,14912,-53,-76,11
26200758,-4084,-1128,16604,36,-98,87
26204054,-3156,312,15100,-125,284,-168
26207524,-2556,1216,16360,-213,114,-424
26211081,-2372,1380,15728,-238,253,-127
26214662,-2512,1948,15812,-72,178,-169
26218108,-3632,-188,16024,-7,116,69
26221317,-4068,320,15936,97,171,357
26224527,-3960,-1568,16628,-235,67,-439
26228084,-2912,1168,15572,-25,-14,21
26231380,-2936,2404,15416,-155,-33,-131
26234937,-3628,-244,16352,133,-117,162
26238432,-3456,340,15300,-62,182,187
26241704,-3388,-1436,16704,-145,108,-377
26245347,-2664,956,15904,-178,342,-140
26248817,-2476,1412,16032,-228,153,-317
26252374,-3008,452,15660,-71,169,-182
26255757,-3076,2696,15532,61,-27,283
26259054,-4356,-1984,16604,-156,234,-303
26262700,-3548,892,15404,79,19,118
26265868,-2912,320,16500,-194,93,-203
26269203,-3116,636,15960,-91,-1,-159
26272500,-3116,2004,15436,27,114,227
26275796,-3708,-1560,16636,-159,163,-315
26279440,-3672,292,15736,-90,245,-49
26282736,-2608,608,15908,-346,353,-406
26286206,-2952,1044,15572,-137,90,-237
26289700,-2632,2988,15860,-2,48,249
26292886,-4428,-1600,15976,-69,74,-132
26296391,-3596,1096,15320,165,22,188
26299653,-2652,-248,16432,-276,79,-287
26303123,-2832,1168,15592,-109,24,-184
26306592,-2956,1988,15948,-64,65,154
26309889,-3640,-1280,16316,-47,214,-170
26313470,-3696,744,15476,37,259,67
26316569,-2984,-408,16696,-366,263,-434
26320126,-2904,1020,15684,-144,251,-215
26323682,-2484,2696,16220,-54,-80,59
26326979,-4068,-1032,15764,83,-121,160
26330449,-3252,1720,14776,116,-20,208
26333832,-3020,-948,16284,-244,151,-306
26337392,-2548,624,15068,-173,249,-234
26340883,-2760,1748,16080,-144,-64,-315
26344416,-2472,1160,15648,-176,332,-40
26347885,-3392,1232,15260,7,43,19
26350922,-3392,-792,16664,-66,293,-49
26354305,-3824,116,15904,-127,216,-134
26357775,-2376,2176,16424,-124,12,-111
26361245,-2984,1104,15472,-2,-92,94
26364503,-2876,2296,14964,121,-93,198
26367838,-3652,-1492,16284,15,-23,75
26371135,-3012,480,15332,-106,187,-161
26374605,-2820,1204,16452,-141,23,-104
26378075,-2444,1392,15920,-215,232,-153
26381631,-2868,1816,15364,49,219,59
26384841,-4100,-1116,16688,-4,113,141
26388248,-4412,-240,16056,-38,323,-46
26391608,-2332,1792,16308,-265,-27,-223
26395164,-3188,1080,15324,67,-210,110
26398582,-2892,2524,15620,51,-95,126
26401844,-4132,-1808,16444,71,-178,194
26405314,-3360,292,15324,-92,348,-93
26408611,-2660,648,16636,-187,46,-391
26411994,-2392,1132,15836,-298,437,-198
26415575,-2876,1968,15460,39,27,43
26418674,-4052,-1084,16696,8,164,52
26421883,-4172,788,15660,54,175,192
26425093,-2992,-52,16608,-295,145,-440
26428563,-3032,1020,15312,-83,-9,-34
26431860,-2884,2220,16048,31,-103,100
26435243,-4276,-1468,16528,-86,-33,-48
26438737,-2752,488,15060,-63,236,-42
26442009,-2620,40,16252,-221,56,-344
26445306,-2344,1268,15500,-151,221,-69
26448776,-2600,2240,15728,-31,193,-21
26452159,-4116,-684,16148,-75,193,11
26455456,-4028,88,15832,144,216,302
26458665,-2540,1764,16544,-315,77,-475
26462135,-2976,1288,15524,35,-43,90
26465394,-3072,2356,15016,80,-164,196
26468728,-4064,-836,16460,62,-76,86
26471938,-3244,280,15180,-159,220,-168
26475408,-2584,1012,16180,-185,51,-422
26478878,-2324,1256,15716,-298,317,-171
26482435,-2696,2060,15428,-170,129,-224
26485992,-3200,544,15600,-18,196,98
26489225,-4324,-128,15968,28,246,60
26492411,-2464,1084,16472,-285,270,-521
26495968,-2904,1324,15464,-27,-167,86
26499386,-2980,2232,15640,-125,70,-152
26502821,-3508,196,16368,82,-201,165
26506118,-3384,264,15080,-74,341,-34
26509414,-2480,308,16256,-201,153,-393
26512909,-2600,1028,15760,-281,318,-195
26516441,-2712,2060,15872,-267,273,-322
26519998,-3096,640,15580,-23,55,-8
26523121,-3920,1212,15556,61,222,265
26526417,-3180,-524,16836,-153,110,-280
26529974,-3016,1140,15392,-74,65,-1
26533184,-3008,1824,16312,-32,-105,15
26536567,-2988,868,16188,109,-133,109
26539975,-3424,880,14992,-22,217,71
26543160,-2688,-564,16352,-59,258,-254
26546630,-3048,632,15756,-278,300,-234
26550100,-2544,1868,15752,-71,176,-127
26553570,-2848,960,15772,-72,81,-83
26556780,-3512,2052,15384,144,110,368
26560163,-3856,-1696,16736,-75,174,-129
26563780,-3432,832,15532,-10,-17,71
26566929,-2960,1192,16668,-155,8,-125
26570313,-2472,1200,15716,1,-174,-41
26573609,-3412,1524,15112,-33,267,195
26576992,-3284,-1356,16568,-205,115,-421
26580636,-3616,248,15836,-163,355,-144
26584106,-2380,1372,15988,-370,343,-405
26587666,-2932,884,15796,-106,131,-214
26591156,-3052,2668,15604,-143,-23,29
26594516,-3972,-844,15784,64,67,43
26597639,-3628,900,15428,11,62,123
26600797,-2940,468,16616,-158,30,-187
26604145,-3236,544,16168,-92,71,-169
26607442,-2916,1960,15244,-8,61,218
26610651,-3880,-1564,16764,-153,261,-278
26614319,-3868,180,15944,-77,181,-50
26617591,-2468,756,16128,-313,343,-380
26621061,-2956,780,15640,-137,111,-216
26624531,-2700,2916,15828,56,-34,221
26627828,-4396,-1720,16176,-50,56,-140
26631298,-3596,1000,15080,150,54,148
26634594,-2944,-304,16408,-230,0,-248
26638002,-2784,1028,15608,-152,97,-214
26641448,-2884,1996,15896,-66,81,89
26644657,-3796,-1108,16392,-36,202,-96
26648127,-3404,1156,15524,42,226,89
26651337,-3352,-856,16708,-357,309,-414
26654894,-2608,1088,15780,-168,287,-330
26658451,-2432,2864,16060,-28,-107,147
26661921,-4228,-1476,16004,111,-81,144
26665439,-2984,2148,14744,87,-17,176
26668687,-3392,-1416,16344,-208,115,-274
26672330,-2948,552,14992,-206,294,-239
26675801,-2656,1556,16256,-211,-64,-347
26679357,-2488,1268,15468,-176,383,-53
26682827,-3128,1512,15232,5,46,-27
26685950,-3848,-552,16308,-71,290,-1
26689270,-4104,-60,15772,-84,222,-80
26692543,-2256,1856,16272,-184,32,-160
26696013,-2892,1192,15420,-21,-113,59
26699397,-2816,2548,14884,104,-62,195
26702815,-3584,-1536,16376,9,-73,74
26705990,-3136,472,15148,-110,199,-132
26709460,-2560,916,16064,-134,-25,-179
26712954,-2396,1200,15752,-273,280,-198
26716486,-2992,1916,15548,57,152,122
26719783,-4116,-1184,16656,-59,117,37
26723166,-4112,612,15616,55,309,127
26726376,-2892,436,16536,-299,-4,-383
26729759,-3208,836,15580,-106,-35,-37
26733142,-2876,2272,15640,24,-117,125
26736526,-4056,-1680,16196,122,-161,153
26740107,-3348,468,15204,-98,276,-71
26743379,-2392,336,16316,-170,-17,-326
26746849,-2836,940,16088,-313,408,-199
26750319,-2780,2028,15612,-5,40,-29
26753529,-3824,-760,16408,-29,160,22
26756825,-4020,1160,15592,124,161,257
26760208,-3212,-660,16800,-301,152,-470
26763813,-2912,1260,15288,-67,-40,44
26767062,-2972,1544,16488,-27,-15,0
26770271,-3904,-768,16600,51,-165,92
26773568,-3304,20,15052,0,253,133
26776604,-2332,1668,16024,-240,53,-464
26780074,-2648,1252,15664,-155,288,-42
26783544,-2856,1828,15300,-165,192,-197
26787101,-3504,-72,15892,-3,85,50
26790160,-4208,272,15868,-48,272,-5
26793347,-2508,952,16508,-242,121,-401
26796817,-2872,1360,15552,-63,-22,2
26800027,-2960,2364,15392,29,-86,131
26803358,-3792,-1624,16324,93,-33,115
26806706,-3380,468,15272,-124,220,-76
26810089,-2532,488,16372,-142,49,-260
26813497,-2744,984,15548,-288,290,-188
26816943,-2972,2000,15688,69,143,31
26820153,-3960,-1008,16664,-137,237,-74
26823709,-4104,892,15920,93,233,191
26826919,-3124,-316,16604,-299,20,-411
26830389,-3220,1052,15504,-72,-30,-37
26833772,-2988,2068,16004,-50,-40,87
26837069,-4088,-1468,16556,24,-49,-4
26840390,-3056,348,15100,-78,326,24
26843575,-2560,-72,16236,-197,-42,-386
26847045,-2596,1192,15496,-181,340,-62
26850515,-2628,2064,15804,-43,11,-103
26853898,-3700,-552,16284,-25,300,57
26857195,-4064,72,15828,102,115,326
26860404,-3596,-1288,16940,-295,194,-467
26864096,-2820,1288,15496,-74,39,-30
26867345,-2976,1700,16484,-91,-31,-7
26870641,-3908,-924,16376,37,-54,81
26873851,-3084,572,15112,-94,256,-100
26877234,-2580,668,16296,-177,143,-349
26880704,-2456,1360,15840,-319,287,-258
26884261,-2216,2064,15868,-103,191,-145
26887821,-3580,-180,15748,-42,92,36
26891051,-4016,768,15852,105,49,360
26894237,-4116,-2044,16700,-229,141,-364
26897881,-2876,972,15572,-50,-28,-7
26901090,-2876,2464,15904,-190,4,-128
26904509,-3792,-256,16272,123,-171,159
26907943,-3232,852,15184,-90,231,117
26911240,-3604,-1572,16592,-114,108,-229
26914908,-3064,600,16080,-118,369,-97
26918267,-2252,1280,16036,-283,173,-345
26921824,-3064,568,15428,13,165,-13
26925033,-3588,1584,15512,22,-46,281
26928330,-4244,-2016,16320,-83,193,-175
26931887,-3276,952,15312,79,41,128
26935010,-2848,1848,16404,-163,22,-230
26938504,-3104,804,15792,37,-133,59
26941689,-3148,1356,14944,-23,240,160
26945072,-3740,-1356,16368,-71,194,-149
26948629,-3532,308,16000,-266,335,-240
26952099,-2756,-96,16420,-329,355,-395
26955569,-3068,844,15600,-90,77,-137
26958866,-3236,2340,15384,-39,13,32
26962076,-4140,-1084,15844,-1,38,12
26965335,-3608,588,15484,46,96,33
26968322,-2744,984,16616,-156,-49,-111
26971792,-3692,-68,16228,35,-38,4
26974828,-3276,500,15076,-27,100,161
26978124,-3368,-1480,16568,-134,178,-342
26981768,-2840,812,15624,-138,306,-87
26985151,-2456,1068,16164,-245,190,-321
26988731,-3036,864,15396,-140,219,-197
26992178,-2916,2644,15676,27,-49,244
26995474,-4164,-1712,16452,-122,166,-192
26999118,-3656,952,15360,72,13,156
27002241,-2844,48,16676,-183,83,-263
27005572,-2832,964,15844,60,-174,81
27008747,-3348,1076,15052,30,83,211
27011957,-3796,-1604,16660,-118,213,-224
27015625,-3248,396,15668,-18,233,0
27018723,-2524,1876,15980,-363,262,-421
27022280,-2788,872,15664,-47,107,-126
27025663,-3452,2208,15272,-55,-37,143
27029047,-4148,-1392,16044,32,42,-27
27032343,-3512,692,15440,-93,93,16
27035466,-2964,1240,16728,-93,-73,-42
27038874,-2512,1232,15688,-9,14,8
27041885,-3112,1692,15244,-2,108,175
27045182,-3348,-1392,16680,-228,233,-337
27048826,-3804,104,16112,-165,256,-124
27052296,-2452,1080,16132,-206,268,-289
27055852,-3084,732,15904,-144,121,-265
27059322,-2956,2976,15492,149,36,384
27062622,-4376,-2116,16596,44,25,103
27066018,-3632,824,15428,73,57,138
27069038,-2880,184,16564,-194,3,-209
27072335,-3108,764,15856,85,-195,138
27075631,-3132,1932,15612,-51,134,185
27079015,-3748,-1608,16420,-93,159,-261
27082571,-3136,660,15880,-38,335,-22
27085868,-2644,492,16176,-346,255,-391
27089361,-2988,872,15552,-119,223,-249
27092808,-2596,2988,15924,-18,-88,250
27096191,-4384,-1748,15864,-37,250,-90
27099661,-3552,1312,14992,119,-31,201
27103044,-3036,-684,16420,-229,130,-253
27106640,-2300,948,15124,-139,134,-201
27110071,-2948,1784,15772,-49,18,44
27113305,-3624,-876,16228,-106,281,-25
27116751,-3816,596,15576,4,168,58
27119787,-2996,-284,16328,-370,410,-423
27123344,-3012,760,15756,-124,154,-210
27126814,-2348,2532,16516,-108,13,5
27130024,-4048,-976,15628,75,-15,86
27133233,-3636,680,15544,144,-36,215
27136530,-3228,-1272,16344,-266,60,-299
27140111,-2380,1312,15372,-50,13,-96
27143383,-2780,1448,16188,-91,-13,-61
27146766,-3236,-44,15884,4,213,-11
27149889,-3868,72,15924,-141,290,-58
27153186,-2508,872,16104,-312,280,-326
27156656,-3212,552,15668,-155,221,-223
27160126,-2712,2968,15716,-239,-58,-217
27163731,-3568,136,15616,76,69,137
27166806,-3476,1088,15172,96,-28,173
27170102,-2760,-256,16524,-134,75,-166
27173572,-2432,1008,15160,-124,24,-186
27177042,-2948,1852,15688,-119,-73,-172
27180599,-2716,708,15600,-102,210,25
27183895,-3800,408,15608,33,243,37
27187018,-2860,-40,16480,-242,361,-179
27190512,-3564,264,15612,-108,168,-218
27193958,-2396,2572,16324,-132,2,56
27197168,-4116,-1052,15756,61,-165,168
27200638,-3320,1844,14724,140,66,235
27203935,-3132,-1212,16444,-27,-118,-8
27207439,-2768,488,15088,-162,302,-232
27210875,-2688,1596,16132,-74,-91,36
27214196,-2408,1352,15516,-134,281,-30
27217641,-3452,1300,15164,24,125,91
27220851,-3532,-960,16740,-274,369,-317
27224408,-3900,152,15740,-89,307,-86
27227704,-2656,1656,16644,-176,-22,-157
27231261,-2964,1304,15480,-25,-34,89
27234557,-3028,2076,14924,96,-57,192
27237878,-3584,-1420,16376,60,-40,54
27241150,-3136,308,15092,-142,223,-142
27244620,-2620,1160,16256,-92,-1,-159
27248004,-2876,612,15768,-257,255,-191
27251474,-2952,1876,15088,106,159,111
27254857,-4068,-1240,16836,-49,165,4
27258153,-4088,576,15768,55,234,103
27261363,-2824,604,16520,-303,12,-363
27264795,-3356,560,15608,-71,-95,-23
27268043,-2636,2508,15484,18,-4,128
27271253,-4204,-1860,16428,-74,-35,-106
27274809,-2596,824,15120,-94,403,-59
27278106,-2636,280,16200,-151,-79,-265
27281576,-2420,1208,15604,-162,320,-66
27285046,-2636,2192,15692,-11,16,2
27288192,-4104,-936,16388,-61,347,43
27291470,-3968,-112,15776,-136,221,-222
27295022,-3000,-288,16752,-290,109,-450
27298579,-3012,828,15660,14,-152,72
27301789,-2936,2416,14696,-29,-64,10
27305085,-4344,-1352,16808,-5,-98,54
27308417,-3152,464,15076,-146,270,-203
27311851,-2912,-700,16376,-216,120,-391
27315433,-2484,1356,15704,-233,287,-153
27318965,-2528,1764,15828,-132,207,-172
27322522,-3516,-60,15940,-15,92,55
27325645,-4292,240,15968,125,143,360
27328941,-3832,-1528,16784,-277,145,-420
27332585,-3020,1132,15684,64,-18,71
27335795,-2724,1268,16664,-199,31,-166
27339289,-3728,-308,16408,126,-126,193
27342735,-3120,1552,14776,-86,244,111
27346118,-3456,-1376,16692,-93,38,-301
27349588,-2744,972,15804,-226,444,-130
27353058,-2396,1132,15964,-227,181,-334
27356614,-3108,536,15536,-84,220,-229
27359998,-2804,2880,15544,57,-65,316
27363343,-4368,-1960,16504,-146,291,-260
27366938,-3724,828,15292,138,-46,129
27370234,-2584,328,16496,-229,122,-241
27373704,-2456,1168,15296,-82,-28,-147
27377174,-3072,1920,15636,-11,135,160
27380558,-3704,-1352,16580,-52,230,13
27383941,-3912,508,15664,-35,257,58
27387151,-2832,-256,16420,-356,279,-439
27390731,-3324,292,15844,-237,183,-378
27394177,-2684,3032,16092,38,-14,293
27397474,-4220,-1664,16220,33,-85,73
27400770,-3228,1816,14860,182,98,219
27404067,-3020,-924,16304,-277,55,-322
27407537,-2576,660,15048,-125,226,-231
27411042,-2884,1836,15952,-37,-62,71
27414328,-3520,-564,16136,-124,241,-44
27417773,-3244,1328,15116,20,175,82
27420983,-3480,-972,16688,-317,329,-390
27424540,-3752,176,15772,-125,342,-151
27428010,-2528,2012,16536,-164,-51,-99
27431480,-3132,996,15392,27,11,57
27434516,-2868,2248,14884,107,-107,182
27438010,-3532,-1448,16384,-177,154,-206
27441630,-2868,396,15048,-174,213,-184
27445100,-2740,1204,16316,-67,-38,-100
27448569,-2424,1232,15732,-273,353,-185
27452126,-2804,1976,15272,-104,43,-166
27455596,-3540,-148,15688,-55,245,69
27458893,-4096,400,15928,2,184,43
27461929,-2568,812,16636,-296,131,-301
27465448,-3052,1004,15536,-71,-159,-40
27468869,-2712,2632,15640,115,-36,194
27472252,-4140,-1824,16600,30,-151,132
27475722,-3140,920,15068,-32,311,-17
27479019,-2916,-76,16616,-150,121,-287
27482489,-2492,1104,15804,-326,364,-251
27486046,-2864,2092,15460,-221,258,-289
27489626,-3260,576,15620,-29,74,-6
27492725,-3952,1260,15768,97,234,287
27496022,-3296,-628,16740,-153,167,-202
27499579,-3340,660,15532,-45,26,-13
27502788,-2800,2160,16404,-46,-109,-7
27506172,-3136,720,15972,135,-169,127
27509555,-3124,1164,14828,-84,242,27
27512894,-3044,-872,16540,20,107,-151
27516235,-3304,340,16124,-339,415,-188
27519705,-2508,1808,15760,-80,134,-196
27523175,-2772,1140,15484,-59,133,-102
27526645,-3172,2208,15280,103,57,370
27529941,-4156,-1564,16852,18,224,-69
27533324,-3736,712,15712,66,-91,93
27536447,-2728,988,16632,-171,117,-220
27539942,-3460,124,16220,-10,-146,-56
27543301,-3004,1632,14936,-42,243,144
27546684,-3332,-1320,16632,-126,75,-311
27550241,-3832,304,15788,-136,301,-54
27553624,-2600,704,16112,-321,275,-406
27557094,-2716,920,15528,-135,75,-303
27560477,-2700,2932,15536,67,77,382
27563747,-4344,-1932,16428,13,30,74
27566897,-3292,728,15476,198,26,192
27570106,-2772,140,16452,-286,89,-305
27573490,-2992,728,15932,121,-155,109
27576873,-2932,1332,14932,-113,102,111
27580343,-3928,-1564,16308,25,183,-156
27583813,-3140,508,15972,-59,256,-10
27587109,-2960,-172,16184,-311,317,-365
27590691,-2868,1028,15540,-159,272,-286
27594223,-2488,2764,16240,-35,-87,163
27597606,-4216,-1288,15964,65,7,103
27600816,-3616,504,15528,174,-95,229
27604112,-3112,-960,16300,-224,224,-284
27607669,-2552,1336,15764,-183,110,-271
27611226,-2796,1900,16060,-39,29,50
27614477,-3500,-532,15936,-3,136,-61
27617732,-3900,164,16080,60,126,151
27620942,-3608,-1232,16728,-346,361,-352
27624585,-2980,856,15380,-79,233,-138
27627969,-2636,1800,16676,-185,11,-105
27631438,-3652,-300,15572,28,12,27
27634561,-3676,1048,15148,140,-20,195
27637969,-3612,-1516,16348,-189,24,-204
27641502,-2420,892,15468,-114,280,-164
27644972,-2588,1068,16232,-191,-84,-148
27648528,-2972,352,15812,-189,240,-130
27651998,-2808,2004,15272,-16,106,65
27655295,-3976,-1236,16656,-182,329,-121
27658938,-4292,212,16072,41,279,92
27662061,-2588,912,16884,-271,-9,-365
27665493,-3260,416,15316,-59,19,9
27668481,-3044,1904,14628,13,-140,72
27671777,-4212,-1732,16556,-46,85,-32
27675161,-2708,716,15316,-149,95,-235
27678544,-2920,1656,16056,-146,44,-242
27682014,-2468,1248,15668,-113,185,-87
27685484,-3200,1400,15220,-16,102,-55
27688891,-3976,-764,16264,-101,194,4
27692163,-4100,-180,16012,-44,238,-136
27695634,-3352,-780,16820,-346,178,-439
27699190,-3108,932,15548,9,-98,35
27702226,-2916,2424,15040,-74,34,-40
27705523,-4192,-1140,16680,57,-154,105
27708993,-2888,516,15148,-156,321,-179
27712467,-3232,-1000,16236,-132,-76,-308
27716148,-2296,1352,16040,-253,368,-201
27719663,-2456,1796,15972,-168,108,-178
27723220,-3472,-32,15804,-31,28,-105
27726517,-3220,2424,15652,72,91,385
27729726,-4108,-1752,16964,-262,234,-420
27733370,-3532,708,15616,18,66,103
27736493,-2932,1032,16696,-165,17,-181
27739987,-3552,-48,16180,79,-89,175
27743173,-3204,748,15116,-97,193,100
27746469,-3652,-1384,16496,-86,152,-233
27750026,-2672,664,15976,-341,318,-289
27753496,-2460,1108,16112,-249,258,-362
27757053,-2928,612,15420,-128,132,-223
27760523,-2788,2956,15692,75,9,304
27763694,-4396,-2024,16380,-141,180,-192
27767289,-3600,844,15372,130,-6,165
27770499,-2744,128,16452,-255,102,-280
27773969,-3216,696,15972,-73,-41,-166
27777352,-2860,2032,15404,-78,210,124
27780735,-3824,-1472,16452,-16,86,-165
27784205,-3652,732,15872,2,285,48
27787242,-2748,-216,16240,-358,242,-440
27790823,-2776,1096,15516,-43,133,-119
27794268,-2688,2692,16344,-47,-121,146
27797738,-4172,-1432,15960,-17,173,-94
27801208,-3216,1684,14708,132,-24,210
27804592,-3144,-928,16496,-188,117,-303
27808148,-2668,816,15004,-170,214,-221
27811618,-2712,1748,16024,-96,-7,16
27814851,-3532,-528,16024,-87,280,-39
27818246,-3244,1216,15452,39,124,64
27821421,-3340,-672,16624,-335,418,-340
27824978,-3052,800,15664,-60,187,-107
27828361,-2364,1980,16556,-159,44,-103
27831831,-3792,-392,15360,-21,-88,66
27835128,-2924,2244,14872,146,-43,177
27838535,-3620,-1496,16440,-208,24,-207
27842068,-3060,336,15072,-157,227,-186
27845538,-2572,1260,16124,-158,5,-101
27848921,-2408,1256,15776,-211,233,-138
27852478,-2848,2064,15168,1,199,91
27855600,-3956,-1336,16484,-201,277,-165
27859244,-4300,284,15804,19,303,34
27862371,-2548,1036,16396,-277,-12,-306
27865972,-3028,1156,15596,-6,-114,75
27869220,-2728,2400,15488,20,-93,102
27872517,-4052,-1620,16324,-56,-14,-84
27875987,-3196,448,15116,-135,380,-94
27879370,-2592,444,16396,-151,-64,-257
27882840,-2500,1192,15816,-330,399,-205
27886397,-2764,2080,15504,8,64,4
27889371,-4148,-896,16540,-134,314,-42
27892816,-4136,932,16036,92,168,248
27896026,-3016,-184,16528,-329,216,-463
27899583,-3128,980,15480,-65,-108,9
27902793,-2776,2160,16160,-33,10,35
27906002,-4200,-1392,16840,-10,-113,69
27909472,-3040,416,15024,-70,309,16
27912686,-2672,1368,16304,-210,-2,-363
27916175,-2496,1092,15956,-189,299,-112
27919744,-2636,1960,15772,-88,175,-137
27923179,-3692,-324,16048,-18,157,64
27926475,-4164,172,15964,103,213,332
27929772,-3688,-1444,16872,-280,96,-429
27933329,-3104,1184,15616,-27,-4,27
27936538,-2756,2432,15348,-157,-50,-81
27940033,-3784,-524,16364,108,-63,143
27943392,-3140,412,15244,-71,196,87
27946601,-3228,-1248,16480,-150,119,-357
27950245,-2440,1176,15904,-294,306,-221
27953802,-2432,1332,15884,-170,162,-258
27957358,-3208,536,15576,-123,167,-192
27960828,-2976,2560,15360,89,-21,389
27964174,-4196,-1928,16844,-207,255,-321
27967768,-3584,832,15420,69,-72,113
27970978,-2752,676,16576,-170,133,-194
27974448,-3488,212,16260,-28,-121,-75
27977831,-2920,1924,15364,-46,212,150
27981215,-3600,-1488,16556,-19,232,-5
27984598,-4020,80,16028,-88,251,-59
27987832,-2392,808,16056,-304,247,-397
27991277,-2876,980,15556,-154,93,-260
27994661,-2784,2880,15916,35,-5,270
27997871,-4320,-1828,16132,-94,115,-188
28001427,-3568,1216,15364,155,66,195
28004724,-2896,-264,16448,-233,30,-269
28008194,-2792,928,15880,-119,103,-224
28011664,-2952,2136,15852,-51,27,133
28014984,-3800,-1292,16532,-3,267,-137
28018430,-3656,704,15504,-43,224,38
28021675,-2952,-136,16284,-308,321,-403
28025197,-2912,900,15724,-165,253,-205
28028667,-2508,2728,16256,-63,-96,84
28031963,-4180,-1272,15588,-3,139,-17
28035347,-3204,1644,15048,150,-76,211
28038754,-2976,-980,16376,-279,196,-306
28042287,-2676,720,14972,-139,122,-183
28045757,-2976,1532,16416,-75,92,8
28048879,-3228,-224,15992,-11,130,-8
28052176,-4032,-100,15900,79,193,116
28055473,-3384,-820,16624,-369,296,-384
28059029,-3084,792,15912,-83,231,-138
28062416,-2228,2328,16464,-211,10,-115
28065985,-3848,-512,15336,46,-164,123
28069266,-2772,2336,15216,96,-41,174
28072562,-3700,-1584,16316,-220,107,-229
28076206,-3104,152,15052,-92,299,-170
28079589,-2656,1272,16332,-143,-117,-114
28083233,-2444,1284,15852,-202,312,-132
28086789,-2980,1808,15184,-9,136,50
28090024,-3988,-1140,16912,-13,125,61
28093382,-4216,312,15908,-51,344,20
28096592,-2544,980,16624,-265,4,-328
28099889,-3428,400,15340,-13,-49,44
28103098,-2736,2312,15600,26,-114,113
28106482,-4036,-1564,16456,-126,110,-49
28110038,-3344,216,15220,-84,240,-62
28113358,-2600,556,16304,-144,3,-262
28116631,-2436,972,15688,-103,173,-17
28120015,-2848,2072,15544,49,151,-5
28123263,-4000,-912,16672,-124,207,-15
28126694,-3896,36,15788,-118,337,-197
28130078,-3084,-220,16448,-384,91,-509
28133548,-3188,872,15448,108,-145,163
28136931,-2996,2088,16264,-67,14,4
28140078,-4132,-1200,16724,51,-142,72
28143437,-3012,412,15096,-208,265,-244
28146907,-2720,-464,16632,-164,-19,-373
28150464,-2304,1320,15964,-243,371,-81
28153934,-2604,1972,15736,-77,76,-117
28157317,-3804,-284,16284,-27,260,31
28160614,-4116,16,15908,97,90,392
28163698,-2248,1720,16308,-297,245,-523
28167206,-2988,1096,15624,-3,-209,74
28170503,-2796,2536,15232,61,14,114
28173713,-3940,-1572,16212,66,-167,175
28177183,-3108,296,15080,-66,290,-116
28180566,-2832,848,16452,-225,132,-444
28184036,-2280,1356,16032,-240,317,-129
28187596,-3032,1944,15460,-170,258,-251
28191174,-3160,628,15696,-29,68,68
28194273,-4372,332,15788,34,298,186
28197482,-2684,464,16516,-266,190,-427
28200952,-2976,1056,15552,3,-11,82
28204075,-2948,2236,16064,-30,-74,73
28207372,-3984,-1400,16684,-22,-24,24
28210755,-3236,500,14848,-125,283,-39
28214162,-2696,32,16320,-158,5,-336
28217348,-2392,1276,15732,-169,229,-50
28220818,-2780,1936,15632,0,158,-73
28224063,-3808,-612,16220,-78,157,16
28227324,-4068,-80,15748,-56,325,-108
28230707,-3336,-860,16856,-374,199,-527
28234264,-2976,1040,15404,31,-122,113
28237651,-2832,1940,16472,-117,79,-64
28241055,-4068,-832,16600,58,-137,133
28244414,-3316,168,15196,0,333,141
28247537,-3300,-996,16584,-199,10,-403
28251007,-2208,1260,15840,-231,388,-168
28254564,-2664,1224,15964,-208,147,-358
28258121,-3092,780,15644,54,149,207
28261330,-4460,-144,15896,124,106,449
28264762,-3944,-1428,16696,-272,209,-477
28268357,-2996,856,15460,63,18,195
28271480,-2788,808,16652,-232,27,-258
28274863,-3260,288,16388,135,-152,239
28278247,-3532,344,15068,-24,152,215
28281543,-3400,-1336,16424,-121,198,-361
28285187,-2880,704,15920,-81,226,49
28288421,-2888,216,16152,-311,332,-459
28291866,-2532,1604,15328,33,-48,93
28295076,-4168,708,15756,84,282,235
28298286,-3088,-184,16492,-196,171,-346
28301843,-3176,748,15684,32,-64,105
28305052,-2672,2016,16416,-146,-37,-181
28308609,-2648,1252,15640,132,-274,173
28312079,-3376,968,15032,-43,168,177
28315399,-3628,-1164,16232,-52,124,-234
28318932,-3320,308,15852,-302,424,-149
28322402,-2856,-32,16356,-352,264,-416
28325907,-2796,1224,15544,-56,133,-141
28329342,-2432,3040,16184,-59,-81,181
28332726,-4540,-1544,15860,-3,191,-46
28336109,-3528,820,15856,136,-66,210
28339430,-3188,-1052,16336,-264,189,-298
28343049,-2612,1180,15544,-150,180,-192
28346606,-2912,1592,16120,-100,-48,10
28349989,-3484,-460,16000,-145,304,-67
28353459,-3400,1308,15448,63,88,119
28356668,-3564,-1028,16596,-312,433,-330
28360312,-4048,-88,16036,-121,210,-155
28363830,-2256,1968,16680,-173,58,-95
28367165,-3164,928,15332,2,-115,19
28370288,-2852,2364,15064,151,-64,184
28373672,-3700,-1600,16428,-253,73,-187
28377228,-3248,244,15072,-130,265,-190
28380698,-2604,1208,16328,-109,-64,-89
28384168,-2192,1316,15856,-272,298,-161
28387728,-2960,2088,15200,31,168,65
28390959,-4084,-1364,16832,0,96,88
28394058,-4384,220,15808,24,285,88
28397181,-2524,796,16408,-292,27,-368
28400564,-3392,468,15328,76,-7,100
28403687,-3220,1732,14884,166,-103,207
28407157,-4124,-1764,16572,-86,50,-105
28410627,-2644,844,15024,-83,50,-235
28413947,-2816,1660,15984,-166,-18,-306
28417480,-2240,1464,15796,-154,193,-77
28420950,-2780,2160,15476,18,56,-11
28424160,-3904,-772,16472,-127,312,-26
28427665,-4044,-84,16044,107,135,287
28430927,-3300,-616,16808,-344,210,-467
28434483,-3104,1028,15320,13,-174,77
28437804,-2920,2404,14848,-28,5,-29
28440989,-4136,-1040,16608,27,-117,154
28444460,-3388,324,15184,-103,287,-160
28447930,-3040,-756,16620,-215,18,-365
28451400,-2308,1356,15948,-195,331,-151
28454956,-2592,1696,15888,-140,179,-204
28458513,-3336,204,15764,-3,120,42
28461636,-4228,408,15892,135,128,398
28464981,-3920,-1748,16868,-252,90,-401
28468489,-3000,1088,15484,-53,34,18
28471699,-2828,2488,15440,-184,-18,-146
28475256,-3568,-208,16324,132,-106,161
28478726,-3256,556,15056,-89,218,128
28482022,-3432,-1264,16532,-83,90,-270
28485492,-2692,792,15888,-205,372,-104
28488987,-2392,1136,16040,-222,148,-343
28492519,-3032,640,15428,-91,191,-217
28495902,-2936,2816,15828,19,-62,292
28499199,-4368,-1800,16256,-136,217,-213
28502842,-3712,908,15404,127,-49,201
28506139,-2868,204,16652,-229,154,-274
28509609,-3108,724,15876,-94,-19,-146
28513015,-3044,1844,15712,-37,189,135
28516375,-3608,-1152,16396,-96,252,-57
28519845,-3920,336,15632,6,198,65
28522882,-2676,56,16168,-394,344,-481
28526265,-2796,1140,15560,21,27,-63
28529509,-3372,2216,15276,-32,40,212
28532771,-4268,-1640,16016,-38,102,-77
28536241,-3428,788,15620,3,49,70
28539215,-2952,1124,16624,-148,-19,-123
28542747,-2512,1268,15624,26,-41,-15
28546044,-3140,1672,15084,-46,170,134
28549427,-3368,-1280,16552,13,248,-52
28552810,-3764,180,15936,-193,251,-109
28556280,-2496,1132,16080,-308,367,-377
28559837,-2876,776,15720,-143,124,-229
28563368,-2976,2792,15544,-131,-61,-23
28566777,-3992,-764,15564,11,82,43
28569900,-3688,872,15448,156,-16,161
28573197,-2752,184,16520,-272,173,-246
28576666,-2320,1148,15368,-30,-96,-147
28580137,-3008,1936,15568,-157,33,-80
28583520,-2956,352,15672,-18,136,-2
28586729,-3992,84,15840,-105,346,-32
28590051,-2436,528,16020,-327,249,-401
28593496,-3248,440,15580,-120,225,-274
28596966,-2456,3092,15932,-33,-75,242
28600349,-3480,304,15308,103,-51,165
28603646,-3468,1392,15268,139,-50,203
28607029,-2980,-676,16308,-253,116,-280
28610586,-2528,812,14996,-129,130,-202
28614079,-2848,1664,15980,-159,-85,-240
28617613,-2528,1028,15632,-121,296,-28
28621083,-3588,872,15520,29,32,71
28624119,-3076,-436,16524,-135,351,-75
28627589,-3780,144,15492,-136,179,-215
28631094,-2388,2468,16292,-288,92,-409
28634529,-3268,684,15444,9,-94,104
28637655,-3036,2200,14676,197,-43,198
28641059,-3412,-1456,16208,-14,-53,39
28644418,-3000,400,15256,-134,187,-233
28647888,-2728,1608,16188,-135,-39,-63
28651358,-2316,1380,15604,-171,219,-76
28654828,-3236,1388,15308,-8,207,67
28658038,-3628,-1004,16736,-38,166,40
28661421,-4020,-12,15772,-85,348,-83
28664766,-2412,1792,16644,-244,-38,-209
28668274,-2872,1140,15368,43,-46,125
28671571,-3024,2396,15056,59,-116,131
28674954,-3804,-1540,16608,91,-96,151
28678338,-3312,192,14964,-173,259,-160
28681808,-2440,976,16228,-194,47,-383
28685191,-2444,1116,15608,-314,352,-185
28688772,-2984,2048,15324,-161,79,-212
28692217,-3416,136,15644,-14,206,22
28695427,-4040,568,15664,23,221,93
28698550,-2812,560,16496,-291,61,-351
28701934,-3444,640,15492,-47,-103,7
28705143,-2980,2288,15592,-13,19,105
28708440,-4076,-1544,16552,-50,-79,-59
28711910,-2828,560,15164,-79,391,-42
28715230,-2676,116,16424,-173,-60,-330
28718676,-2428,1336,15588,-281,372,-210
28722233,-2812,2072,15488,13,45,-13
28725443,-3992,-780,16416,-63,283,-3
28728739,-3824,80,15624,19,190,266
28731897,-3276,-536,16776,-287,127,-439
28735419,-3172,1040,15512,12,-128,91
28738740,-2916,2380,14992,-43,-61,-24
28742099,-4184,-1200,16560,3,-18,71
28745309,-3016,444,15144,-114,230,-196
28748779,-2732,1164,16504,-191,98,-375
28752249,-2276,1396,15584,-252,263,-156
28755805,-2540,1744,15872,-75,161,-174
28759275,-3464,336,15872,-2,100,123
28762489,-4464,-376,16020,-26,382,-63
28765917,-3540,-1352,16852,-354,131,-573
28769512,-3032,1168,15508,40,-54,137
28772808,-3028,1124,16692,-202,75,-148
28776278,-3688,-268,16032,131,-154,199
28779748,-3176,1368,15052,-34,280,149
28783132,-3176,-1192,16532,-140,57,-400
28786688,-3612,100,16040,-201,403,-180
28790183,-2388,1532,15876,-184,103,-271
28793715,-2948,912,15832,-82,130,-204
28797098,-3036,2852,15620,82,-5,452
28800308,-4356,-2068,16676,-200,222,-353
28803952,-3580,776,15676,51,43,126
28807075,-2840,548,16784,-218,31,-185
28810458,-3340,360,15976,-28,8,-101
28813691,-2792,1952,15304,-49,125,141
28817051,-3716,-1416,16556,-139,214,-264
28820694,-3960,-52,15956,-136,233,-69
28824078,-2396,872,16040,-257,314,-348
28827547,-3236,672,15596,-159,123,-239
28831017,-2776,2928,15812,61,-27,285
28834349,-4248,-1664,16112,0,64,117
28837527,-3756,916,15188,185,-39,194
28840845,-2716,-16,16220,-279,161,-233
28844290,-3128,788,15884,-110,-23,-168
28847760,-2848,2020,15832,-83,195,69
28851057,-3748,-1140,16304,-1,122,-127
28854527,-3856,284,15568,-5,281,39
28857650,-2488,224,16348,-379,258,-445
28861120,-2996,948,15712,-20,137,-113
28864551,-2460,2768,16104,-67,-77,103
28867886,-4200,-1340,15856,-8,207,-22
28871269,-3592,572,15556,151,-40,217
28874566,-3060,-952,16356,-222,167,-320
28878123,-2668,1140,15488,-164,175,-258
28881680,-2852,1732,16264,-66,-27,72
28884976,-3608,-668,15992,-7,231,-33
28888308,-3816,-24,16212,61,120,89
28891400,-3240,-760,16472,-355,446,-386
28894952,-3032,808,15380,-135,70,-236
28898336,-2412,2392,16312,-126,9,-34
28901632,-3936,-736,15508,38,32,67
28904755,-3668,1016,15464,130,51,150
28908052,-2760,100,16528,-243,91,-226
28911435,-2468,1196,15348,-57,-31,-153
28914928,-3016,1856,15436,-49,89,172
28918201,-3076,192,15780,-20,222,-19
28921498,-3936,216,15872,-75,254,-22
28924794,-2508,472,16240,-313,269,-443
28928264,-3364,624,15512,-164,246,-283
28931734,-2568,2872,16100,0,-87,213
28934979,-4328,-1488,16220,81,38,147
28938265,-3520,1096,14792,135,-13,163
28941624,-2888,-488,16380,-222,152,-263
28945180,-2444,836,15232,-158,87,-271
28948564,-2868,1984,15684,-15,78,125
28951860,-3728,-1112,16168,-88,224,-34
28955330,-3612,764,15568,23,162,86
28958453,-2948,-436,16540,-396,332,-439
28962010,-2916,920,15588,-111,220,-213
28965529,-2476,2464,16264,-135,-36,17
28968863,-4068,-1036,15768,50,-142,156
28972333,-3204,1952,14784,86,49,173
28975543,-3264,-1040,16292,-163,32,-226
28979100,-2928,376,15080,-181,296,-241
28982570,-2628,1768,16244,-57,-126,25
28985953,-3404,-556,16060,-131,286,-15
28989448,-3152,1520,15260,37,116,88
28992633,-3528,-1188,16676,-283,396,-299
28996276,-3916,96,15840,-139,307,-129
28999660,-2408,1956,16508,-175,-10,-145
29003216,-3052,1108,15460,-7,-50,70
29006426,-2804,2468,14856,118,-122,207
29009896,-4192,-988,16576,106,-54,136
29013302,-3148,408,15116,-162,217,-207
29016749,-2476,1012,16188,-168,47,-361
29020219,-2348,1340,15640,-263,266,-175
29023776,-3060,1892,15116,-100,109,-202
29027333,-3544,20,15872,-41,181,52
29030456,-4036,456,15992,45,229,99
29033579,-2684,624,16572,-290,234,-428
29037084,-2816,1228,15464,-50,-109,33
29040457,-2960,2200,15664,34,-2,130
29043642,-4160,-1716,16692,116,-228,164
29047199,-3448,328,15200,-129,389,-90
29050582,-2392,504,16248,-174,51,-379
29053965,-2792,808,15936,-288,432,-187
29057435,-2700,2124,15544,-33,73,-81
29060732,-2848,1136,15376,53,65,94
29063957,-4112,572,15760,23,222,188
29067064,-3000,20,16416,-281,104,-457
29070447,-3248,768,15488,-56,-77,83
29073657,-2976,2284,14880,-48,-22,-9
29076954,-3976,-1208,16568,72,-137,96
29080337,-3120,232,15128,-178,316,-237
29083807,-2636,-420,16380,-183,45,-407
29087281,-2384,1168,15712,-212,267,-102
29090858,-2660,1920,15864,-98,220,-128
29094304,-3624,-288,15976,-16,83,39
29097514,-3968,224,15796,112,199,358
29100810,-3836,-1536,16800,-305,121,-454
29104454,-2876,1400,15460,-10,-13,1
29107663,-2924,1572,16576,-150,-31,-40
29111133,-3960,-604,16472,158,-133,113
29114627,-3168,1444,14896,-52,251,152
29117987,-3128,-1248,16636,-185,58,-394
29121543,-3456,388,15872,-184,365,-170
29125013,-2516,1416,16064,-192,110,-245
29128570,-3116,976,15804,-59,188,-175
29131953,-3144,2632,15496,50,-39,396
29135250,-4204,-1900,16628,86,82,80
29138507,-3740,660,15500,34,-2,57
29141496,-2824,652,16548,-185,71,-142
29144879,-3464,332,16084,90,-209,152
29148176,-3368,640,15060,25,130,240
29151385,-2576,-52,16340,-202,175,-364
29154855,-2848,908,15860,-249,347,-171
29158325,-2772,1788,15676,-314,265,-419
29161882,-2836,1048,15620,-17,59,-30
29165227,-3840,1412,15608,18,5,293
29168302,-3560,-1012,16680,-66,90,-194
29171771,-2968,1056,15484,-87,89,-13
29175068,-3104,1572,16636,-44,-106,13
29178451,-2768,1092,15804,56,-41,78
29181661,-3388,1092,15100,-39,179,147
29185044,-2908,-796,16476,-79,282,-191
29188539,-3464,344,15888,-232,234,-176
29191984,-2540,1796,15808,-113,196,-176
29195541,-2952,920,15620,-103,60,-161
29198924,-3372,2296,15496,149,106,387
29202308,-4268,-1444,15936,-54,148,-53
29205778,-3544,736,15600,20,-19,46
29208901,-2940,956,16772,-226,90,-146
29212287,-2596,1284,15660,9,-178,-55
29215605,-2980,1736,15236,-57,318,140
29218964,-3480,-1520,16596,-14,160,-57
29222434,-3672,180,15860,-167,383,-141
29225904,-2404,1348,15696,-398,366,-391
29229460,-3068,984,15728,-71,99,-173
29232757,-2896,2680,15636,22,-5,337
29235967,-4184,-1864,16276,45,20,93
29239218,-3944,636,15460,102,32,158
29242386,-2664,472,16624,-225,59,-250
29245769,-3348,512,15908,108,-210,206
29249153,-2888,2052,15296,-64,107,176
29252536,-4000,-1656,16604,-88,221,-246
29256093,-3984,380,15792,-75,202,-33
29259389,-2604,428,16164,-314,355,-435
29262907,-2792,1092,15564,-160,153,-285
29266416,-2692,2792,16028,28,-24,230
29269712,-4288,-1580,15952,-92,154,-149
29273269,-3484,1176,14996,203,-63,216
29276652,-2876,-492,16388,-302,175,-280
29280209,-2660,828,15188,-149,69,-217
29283592,-2868,1796,15952,-64,124,98
29286889,-3772,-956,16356,-116,169,-15
29290383,-3728,724,15552,29,270,67
29293482,-3016,-360,16416,-368,298,-397
29297038,-3668,52,15732,-119,262,-243
29300422,-2436,2764,16304,-90,-119,44
29303805,-4188,-1128,15736,75,-135,149
29307275,-2940,2048,14588,93,-18,188
29310572,-3196,-1236,16244,-228,110,-261
29314240,-2888,472,15072,-162,264,-208
29317685,-2772,1600,16272,-197,-70,-359
29321242,-2308,1392,15692,-151,359,-44
29324712,-3304,1348,15392,-34,33,-65
29328008,-3712,-444,16272,-68,272,7
29331218,-3980,92,15692,-40,194,-91
29334428,-2364,1776,16508,-202,56,-186
29337921,-2888,1284,15432,-29,-125,83
29341316,-2908,2304,15144,112,-30,155
29344664,-3584,-1472,16540,2,-84,128
29347961,-3204,452,14916,-120,269,-102
29351431,-2672,900,16264,-153,-69,-199
29354901,-2320,1212,15780,-302,281,-188
29358458,-2908,1980,15432,-99,198,-201
29361927,-3456,4,15556,-42,83,27
29364926,-4116,596,15756,65,283,146
29368087,-2772,436,16604,-319,26,-395
29371470,-3304,900,15424,-59,-46,-28
29374767,-3028,2336,15708,38,-111,147
29378150,-4100,-1744,16744,-70,64,-104
29381620,-3224,720,14824,-126,292,-57
29385003,-2696,-24,16416,-121,-40,-336
29388498,-2400,1356,15540,-346,436,-223
29392030,-2700,2020,15624,-33,53,-69
29395326,-4004,-740,16300,5,116,43
29398449,-3864,-108,15780,57,191,256
29401746,-3228,-308,16560,-319,144,-461
29405303,-3060,912,15580,-50,-85,27
29408512,-2984,2020,16296,-40,-29,-6
29411809,-4072,-1228,16544,39,-128,86
29415217,-3220,272,15080,-149,352,-216
29418662,-2804,-660,16480,-215,-1,-369
29422132,-2304,1316,15784,-252,331,-131
29425689,-2492,1968,15780,-110,173,-172
29429246,-3612,-172,16040,-27,9,-77
29432455,-3464,2008,15500,91,208,355
29435752,-4008,-1760,16732,-267,98,-433
29439332,-2988,1256,15404,15,45,85
29442466,-2852,972,16664,-176,-7,-180
29445815,-3636,0,16356,139,-81,204
29448938,-3344,372,14952,-76,254,-96
29452234,-2564,476,16408,-126,178,-357
29455704,-2672,944,16052,-315,295,-197
29459174,-2796,2016,15568,-232,196,-308
29462780,-3124,692,15600,-22,82,17
29465854,-4236,880,15792,94,257,276
29469064,-3168,-308,16464,-193,238,-322
29472621,-3132,828,15604,-47,-101,-8
29475917,-2792,2144,16268,-75,-49,21
29479214,-4208,-1308,16464,129,-252,166
29482770,-3144,920,14836,-97,340,-10
29486067,-2848,-436,16304,-104,126,-250
29489648,-3104,512,15900,-270,451,-204
29493094,-2724,1852,15796,-338,246,-401
29496650,-2784,1144,15588,-68,133,-88
29500034,-3640,1884,15496,11,-73,253
29503330,-4316,-1828,16108,-11,174,-142
29506887,-3324,692,15720,-67,-31,23
29510097,-2964,1388,16736,-209,39,-270
29513591,-2632,1184,15780,-1,-113,0
29516776,-3068,1580,14972,-18,180,170
29520160,-3916,-1076,16468,-23,257,-78
29523630,-3704,0,16076,-208,292,-173
29526926,-2368,1624,16164,-354,388,-407
29530483,-3024,860,15792,-116,45,-195
29533866,-3040,2800,15324,-65,-24,35
29537162,-4172,-1080,15828,53,22,52
29540396,-3732,912,15468,68,111,101
29543617,-2860,324,16632,-201,8,-218
29546879,-3260,568,15972,-9,-54,-85
29550088,-3008,1860,15324,-75,143,162
29553472,-3624,-1480,16372,-28,154,-248
29557028,-3868,208,15952,-135,275,-45
29560412,-2444,684,16072,-286,250,-363
29563942,-3012,948,15640,-184,187,-296
29567352,-2524,3156,15800,41,-71,325
29570648,-4528,-2076,16232,-150,229,-232
29574292,-3448,1416,15364,172,-72,221
29577675,-2996,-528,16404,-130,60,-135
29581145,-2488,884,15356,-169,44,-288
29584528,-3032,2028,15680,9,76,181
29587655,-3736,-1260,16480,-89,238,-42
29591146,-3416,1164,15296,32,179,78
29594331,-3356,-992,16532,-356,367,-396
29597887,-3556,-108,15908,-221,208,-391
29601444,-2392,2988,16132,-55,-27,180
29604828,-3504,368,15484,101,-151,149
29608211,-3004,2252,14868,116,32,230
29611507,-3304,-1388,16352,-248,84,-291
29615089,-2808,448,15040,-153,315,-297
29618534,-2712,1880,16272,-210,-34,-373
29622091,-2524,1152,15720,-143,286,-62
29625561,-3172,1628,15100,-84,166,-173
29629031,-3732,-340,16236,18,159,91
29632241,-4084,-64,15928,-119,300,-150
29635710,-3508,-984,16464,-284,92,-476
29639204,-2900,1144,15556,-13,-44,54
29642477,-2856,2536,15176,-123,-74,-77
29645982,-3996,-672,16316,106,-62,167
29649330,-3324,360,15376,-112,231,-163
29652800,-2996,-960,16348,-159,47,-358
29656270,-2408,1168,15836,-292,305,-196
29659827,-2532,1532,15948,-122,127,-256
29663432,-3400,344,15568,-95,127,-174
29666767,-3148,2560,15388,102,-5,404
29670064,-4160,-1976,16680,-248,227,-404
29673707,-3632,804,15696,36,-31,126
29676917,-2796,640,16804,-186,102,-174
29680387,-3244,492,16088,-61,-102,-102
29683857,-3168,1668,15388,42,194,225
29687153,-3564,-1496,16504,-120,87,-341
29690735,-3924,152,15844,-90,296,-57
29694006,-2544,708,16044,-331,196,-404
29697477,-3052,752,15732,-130,96,-242
29700860,-2660,2916,15708,-30,45,264
29704156,-4488,-1868,16184,-47,140,-174
29707713,-3628,1044,15272,103,52,164
29711010,-2872,-124,16588,-211,71,-277
29714504,-2464,964,15180,-115,148,-182
29717950,-3020,1940,15676,-56,42,137
29721246,-3716,-1260,16356,-55,257,24
29724629,-3696,460,15608,-3,151,43
29727752,-2936,-300,16388,-327,374,-437
29731309,-2772,992,15696,-206,183,-267
29734779,-2424,2832,16184,-12,10,127
29738099,-4140,-1164,15768,9,-84,108
29741372,-3284,1756,15000,215,-91,232
29744755,-3176,-1088,16232,-324,222,-338
29748434,-2920,572,15124,-110,30,-213
29751782,-2736,1656,16168,-123,83,-38
29755165,-3468,-432,15724,-137,159,-89
29758635,-3444,1120,15312,59,236,105
29761932,-3448,-736,16460,-341,300,-343
29765537,-3996,-96,15884,-94,293,-138
29768872,-2336,2176,16340,-195,-90,-91
29772342,-2964,952,15348,24,-93,98
29775465,-2836,2396,15048,90,-155,187
29778848,-3708,-1608,16348,-202,185,-194
29782492,-3280,284,15200,-96,204,-190
29785875,-2612,1016,16420,-165,-19,-162
29789456,-2372,1288,15668,-266,368,-172
29792988,-2932,1912,15276,-115,43,-234
29796458,-3412,144,15868,-50,227,81
29799668,-4396,388,15896,47,188,64
29802791,-2656,720,16880,-274,86,-300
29806174,-3152,712,15580,-122,-42,-86
29809558,-2760,2616,15616,113,-90,135
29812965,-4304,-1724,16468,95,-156,189
29816411,-3184,552,15308,-60,297,-49
29819707,-2640,-44,16500,-194,-52,-280
29823177,-2592,884,15888,-334,353,-246
29826647,-2728,2316,15792,-22,98,16
29829857,-3916,-884,16448,-19,43,38
29833067,-4064,1288,15524,113,223,256
29836450,-3272,-440,16924,-284,54,-391
29839943,-2988,928,15508,-64,62,-63
29843130,-2672,2280,16252,-59,-113,27
29846513,-4224,-1228,16740,44,-3,75
29849758,-3032,560,15164,-78,265,17
29852932,-3112,-884,16572,-138,79,-305
29856403,-2328,1420,15792,-244,237,-152
29859959,-2484,1824,16032,-80,85,-162
29863391,-3584,-156,16092,-81,208,31
29866639,-4300,284,15856,129,36,346
29869849,-3944,-1516,17156,-277,239,-377
29873492,-2952,916,15544,-75,-69,-41
29876789,-2816,2636,15584,-138,30,-144
29880259,-3824,-256,16292,76,-167,152
29883642,-3092,744,15288,-69,320,109
29886939,-3620,-1364,16452,-86,16,-266
29890433,-2552,956,15900,-334,413,-272
29893879,-2452,1420,16224,-219,113,-289
29897435,-3296,436,15864,-14,191,20
29900645,-3988,1136,15696,60,16,323
29903855,-4392,-1864,16616,-117,187,-235
29907498,-3084,652,15564,88,57,139
29910621,-2836,2196,15964,-203,29,-214
29914116,-3172,456,16140,63,-121,135
29917388,-3096,1064,15040,-44,249,17
29920684,-3772,-1372,16208,-34,181,-188
29924241,-2984,584,16012,-337,345,-233
29927711,-2692,408,16232,-283,305,-398
29931181,-2876,932,15496,-55,29,-110
29934478,-3564,1968,15344,50,-52,253
29937797,-4356,-1688,15964,-89,169,-125
29941331,-3656,304,15648,9,40,40
29944280,-2664,1668,16516,-153,-53,-99
29947750,-2880,1104,15588,66,-190,40
29951082,-2848,1636,14924,-80,225,106
29954430,-3376,-1204,16348,23,158,-73
29957813,-3620,216,16132,-281,392,-190
29961283,-2476,1364,16168,-148,94,-253
29964803,-2800,936,15696,-118,180,-220
29968223,-3020,2848,15248,128,-49,385
29971607,-3992,-984,16032,66,139,21
29974816,-3724,764,15536,72,-28,170
29978026,-2668,632,16480,-157,85,-200
29981409,-3216,520,16124,-80,-38,-135
29984793,-3184,1832,15520,-7,170,186
29988114,-3692,-1360,16644,-86,85,-248
29991559,-3940,128,15988,-73,244,-31
29994856,-2548,672,16304,-326,277,-402
29998326,-2880,876,15436,-154,120,-285
30001796,-2720,2988,16100,29,42,269
30005005,-4280,-1812,16308,-112,122,-165
30008649,-3348,1292,14828,170,85,221
30011945,-2876,-512,16376,-261,54,-299
30015440,-2464,952,15208,-122,165,-222
30018885,-2928,1940,15856,-74,2,98
30022008,-3792,-1056,16208,13,233,-102
30025478,-3600,780,15440,-26,197,49
30028688,-3000,-344,16316,-362,324,-421
30032245,-2812,956,15548,-142,293,-218
30035715,-2412,2624,16296,-87,-76,53
30039035,-4052,-948,15688,60,-49,91
30042221,-3684,612,15444,150,-85,179
30045518,-3132,-1232,16248,-235,209,-299
30049161,-2404,1256,15504,-153,157,-230
30052753,-2840,1436,16120,-71,21,-50
30056014,-3312,-76,15792,-211,254,-118
30059484,-3204,1616,15240,99,136,158
30062883,-3712,-1232,16684,-340,384,-305
30066424,-4088,116,15704,-25,206,-27
30069721,-2552,1412,16576,-253,10,-235
30073191,-2932,1168,15624,-23,-170,32
30076574,-2744,2460,14924,112,-22,170
30079957,-3744,-1528,16484,48,-161,81
30083341,-3116,588,15080,-95,331,-65
30086637,-2688,732,16376,-178,-85,-269
30090132,-2380,1400,15752,-256,360,-186
30093664,-2840,2012,15328,44,81,63
30096787,-4120,-1220,16692,-192,353,-168
30100430,-4040,796,15860,23,205,163
30103640,-3088,192,16580,-280,88,-406
30107023,-3088,752,15488,-83,-10,-15
30110320,-2792,2216,15772,7,-75,83
30113467,-4112,-1276,16640,-25,-58,14
30116826,-2960,432,15104,-64,238,16
30120036,-2792,-60,16412,-158,58,-345
30123419,-2384,1228,15560,-181,177,-98
30126889,-3380,1392,15256,1,153,-12
30130099,-3820,-772,16416,-72,172,-21
30133482,-4064,60,15720,-84,322,-90
30136692,-2548,1808,16556,-335,105,-489
30140272,-2844,1132,15604,11,-46,76
30143458,-2912,2340,15012,91,-162,149
30146842,-3684,-1612,16476,96,-90,85
30150138,-3044,312,15316,-147,288,-143
30153647,-2740,884,16448,-185,11,-357
30156991,-2248,1336,15764,-269,354,-159
30160548,-2976,1844,15316,32,100,69
30163806,-3952,-1172,16744,-4,244,23
30167054,-4192,424,15904,21,173,91
30170177,-2696,600,16580,-281,151,-376
30173647,-3280,664,15324,-81,-121,-9
30176944,-2892,2428,15772,80,-58,137
30180240,-4152,-1528,16400,-90,-41,-56
30183710,-2700,644,15100,-81,289,-50
30187007,-2920,-20,16492,-174,-34,-314
30190501,-2220,1296,15612,-124,252,-69
30193947,-2572,2076,15548,-49,128,-59
30197330,-4036,-604,16388,-65,230,43
30200627,-4080,-296,15900,67,271,258
30203923,-3104,-364,16632,-280,56,-458
30207393,-3152,864,15544,-8,-47,42
30210516,-2900,2448,14856,-50,-99,-12
30213924,-4144,-1360,16728,59,-25,127
30217282,-3124,436,15132,-172,167,-193
30220752,-2832,-752,16292,-154,74,-343
30224223,-2256,1364,15864,-262,258,-180
30227779,-2632,1908,15896,-64,50,-104
30231163,-3660,-192,15800,-77,236,19
30234459,-4200,352,15764,135,14,352
30237692,-3956,-1632,16964,-277,249,-428
30241312,-2884,1192,15500,-55,-146,15
30244696,-2852,1204,16636,-101,30,-78
30248079,-3788,-144,16332,85,-206,119
30251462,-3256,404,15156,3,205,163
30254620,-3352,-1416,16416,-189,112,-381
30258229,-2468,1084,15640,-260,353,-206
30261785,-2372,1492,16152,-246,185,-248
30265390,-3208,488,15484,-91,47,-200
30268638,-2840,2804,15540,57,88,340
30271848,-4328,-2024,16496,-137,125,-254
30275492,-3792,632,15604,107,54,134
30278701,-2728,516,16532,-216,7,-201
30281998,-3356,376,15964,141,-134,142
30285381,-3192,888,14824,-41,115,193
30288702,-3816,-1700,16536,-34,212,-225
30292235,-2980,608,15968,-122,295,-49
30295618,-2520,440,16236,-302,270,-368
30299088,-2984,940,15576,-58,61,-107
30302384,-2592,2864,16028,13,-92,200
30305681,-4164,-1596,15972,-64,164,-124
30309238,-3500,652,15460,153,-92,199
30312538,-2840,-436,16176,-233,184,-335
30316115,-2736,1224,15940,-145,44,-181
30319561,-2780,2000,15936,-53,84,127
30322857,-3620,-928,16152,-26,160,-88
30326241,-3756,-20,16088,91,185,118
30329450,-2904,-504,16440,-413,313,-435
30333007,-2952,884,15740,-66,150,-173
30336390,-2572,2428,16328,-157,-6,-14
30339797,-3944,-744,15580,62,51,59
30342897,-3732,644,15492,52,38,107
30346020,-2748,712,16552,-238,84,-322
30349403,-2456,1232,15536,-15,10,-65
30352699,-2948,1952,15236,-35,130,110
30356118,-3724,-1384,16452,21,260,34
30359379,-4064,-16,15992,-111,222,-48
30362811,-2400,848,16180,-312,316,-406
30366232,-3148,632,15596,-132,110,-219
30369702,-2696,2776,15948,13,19,193
30372912,-4108,-1504,16164,19,-2,90
30376122,-3532,1028,15080,148,9,189
30379332,-2852,-336,16592,-240,32,-274
30382801,-2772,1060,15960,34,-113,42
30386098,-2792,2132,15660,-47,83,111
30389419,-3776,-1312,16484,-30,215,-127
30392951,-3628,140,15952,23,292,62
30396074,-3172,-532,16416,-352,254,-416
30399631,-2892,872,15716,-102,166,-185
30403101,-2440,2432,16212,-104,-62,31
30406484,-3900,-724,15720,40,159,48
30409694,-3684,472,15736,32,-25,72
30412841,-2640,940,16648,-218,155,-293
30416287,-2584,1004,15544,-15,-123,-49
30419757,-2848,2116,15272,-128,-17,-81
30423227,-3240,28,15620,11,174,20
30426263,-4020,-40,15856,-113,262,-66
30429647,-2408,764,15996,-316,211,-402
30433117,-3052,616,15668,-143,130,-256
30436587,-2648,3008,15844,0,10,276
30439733,-4352,-1812,16280,58,-25,120
30443093,-3528,1100,15388,159,59,172
30446389,-2892,-136,16444,-265,78,-310
30449859,-3016,808,15776,-70,69,-152
30453156,-2920,1760,15768,-80,45,56
30456400,-3564,-936,16196,40,204,-84
30459662,-3520,120,15896,-16,215,48
30462920,-3020,-136,16368,-311,299,-410
30466429,-2912,948,15632,-122,92,-191
30469812,-2492,2552,16284,-58,-52,96
30473108,-4104,-952,15684,-42,207,-5
30476405,-3812,300,15892,81,-59,38
30479528,-2220,1432,16404,-326,328,-343
30483084,-2888,800,15624,1,-200,-40
30486294,-2592,2160,15228,-47,245,119
30489707,-3944,-1644,16772,66,73,26
30492887,-3776,396,15872,-172,419,-40
30496271,-2776,192,16280,-260,181,-376
30499741,-2816,892,15820,-177,192,-349
30503211,-3028,2700,15816,126,-130,413
30506680,-4024,-760,15344,-31,191,40
30509977,-3800,752,15432,157,-98,219
30513298,-2432,448,16252,-274,175,-338
30516744,-2784,724,15284,-67,-9,-165
30520040,-2600,2072,15908,-52,148,88
30523337,-3864,-1384,16460,-53,188,-123
30526893,-3696,456,15732,-79,228,21
30530103,-2976,-28,16352,-288,318,-394
30533573,-3236,588,15392,-152,159,-251
30537043,-2660,2584,16172,-21,8,174
30540276,-4012,-1032,16040,-19,93,8
30543463,-3836,88,15836,211,-96,272
30546672,-2884,-584,16104,-341,198,-393
30550229,-2844,884,15796,90,-146,61
30553439,-2732,1940,15128,-208,121,-102
30557031,-3332,-312,15784,92,115,33
30560205,-3772,-152,16128,-256,380,-153
30563823,-3324,-584,16436,-371,301,-404
30567319,-2960,868,15508,-69,312,-138
30570702,-2432,1876,16508,-152,-49,-69
30574172,-3904,-36,15512,29,170,140
30577382,-3952,8,15732,199,-198,296
30580592,-3268,-1348,16220,-295,278,-377
30584235,-2748,836,15356,-50,93,-110
30587535,-2592,996,16344,-219,68,-238
30590939,-2916,576,15368,-3,145,49
30594038,-3836,124,15932,-61,289,-41
30597334,-2908,280,16380,-270,374,-258
30600804,-3060,484,15604,-171,149,-262
30604274,-2672,2752,16256,-216,91,-235
30607744,-3556,576,15144,38,-4,161
30610867,-3688,868,15276,213,-66,213
30614188,-2520,-68,15972,-269,244,-227
30617634,-3064,396,15220,-24,33,-90
30620844,-2388,1940,16160,-83,4,24
30623967,-3828,-888,16160,36,224,-50
30627263,-3564,832,15696,-31,263,74
30630473,-3316,-744,16636,-276,288,-387
30634030,-2848,1000,15580,-159,286,-204
30637590,-2508,2108,16432,-89,-72,-38
30640993,-4004,-336,15796,-17,39,115
30644266,-3252,1660,15192,178,-195,239
30647736,-3072,-944,16248,-304,328,-354
30651293,-3224,116,15172,-31,11,-131
30654589,-2476,1552,16436,-175,146,-144
30658181,-2564,1340,15420,-154,211,-106
30661703,-3240,1716,15308,79,115,86
30664961,-3736,-1220,16740,-81,261,16
30668296,-4236,56,15920,-56,202,-50
30671506,-2564,1368,16460,-233,16,-176
30674976,-3480,444,15508,-99,-59,-52
30678272,-2904,2320,15300,75,-78,214
30681569,-3920,-1624,16256,-166,159,-179
30685212,-3160,492,15436,-1,210,-46
30688446,-2704,396,16600,-247,31,-281
30691805,-2696,1080,15336,-239,395,-226
30695362,-2832,2204,15564,82,-4,114
30698572,-4072,-1296,16528,-217,402,-169
30702215,-4132,748,15760,76,157,113
30705425,-3320,-68,16732,-246,101,-300
30708895,-3088,964,15536,-190,40,-126
30712281,-2928,2336,15940,73,-115,137
30715686,-4156,-1400,16612,-112,76,11
30719045,-3108,896,15296,-55,198,-5
30722254,-2924,-360,16252,-258,130,-332
30725811,-2464,1188,15584,-284,301,-276
30729368,-2528,2348,15816,-15,131,4
30732577,-3876,-784,16376,-108,213,-17
30736048,-3780,1484,15372,142,115,273
30739454,-3700,-768,16896,-263,51,-368
30742901,-3408,276,15768,-48,17,-51
30746111,-2772,1936,16396,-47,-99,-29
30749494,-4064,-624,16212,58,-3,116
30752704,-3252,276,15376,-57,259,49
30755913,-3488,-1244,16388,-203,116,-361
30759592,-2320,1300,15720,-273,420,-178
30763162,-2424,1604,16008,-186,110,-277
30766670,-3512,200,15900,-71,137,-110
30770054,-3056,2584,15420,118,-29,323
30773437,-4164,-1456,16784,-234,282,-288
30777080,-4012,120,15860,33,-84,89
30780203,-2504,1328,16324,-133,106,-202
30783760,-2960,980,15736,-23,-142,-15
30787147,-2576,1852,15492,-24,185,96
30790464,-4132,-1612,16388,27,197,2
30793649,-2604,952,15760,-145,298,-75
30797033,-2592,616,16468,-308,248,-387
30800503,-3200,796,15536,-150,119,-269
30803973,-2700,2596,15840,10,-7,212
30807183,-4128,-1184,16256,-113,143,-125
30810826,-3924,456,15612,197,-26,176
30814147,-2332,404,16260,-260,70,-295
30817506,-3032,820,15648,-30,-30,-102
30820889,-2428,2212,15928,-27,58,113
30824186,-4012,-1352,16356,-22,237,-109
30827742,-3708,656,15820,-44,241,15
30830952,-2932,-244,16648,-299,272,-417
30834509,-2856,968,15708,-196,315,-289
30838002,-2600,2748,15968,1,-97,155
30841189,-4252,-1008,15984,-71,225,30
30844572,-3480,1268,14960,183,-134,225
30848042,-2628,-516,16004,-283,301,-377
30851599,-3056,380,15296,-23,-29,-103
30854982,-2556,1688,16172,-159,151,-90
30858452,-3552,-420,15592,-82,172,-25
30861870,-3416,1192,15536,64,172,143
30865180,-3388,-856,16800,-364,289,-371
30868688,-4068,4,15664,-123,216,-179
30871985,-2556,2052,16420,-166,11,-51
30875368,-3856,-180,15636,-67,-95,-2
30878665,-2980,2264,15068,168,-80,272
30882048,-3584,-1440,16252,-308,187,-311
30885691,-3256,408,15384,-2,159,-94
30888926,-2696,1016,16440,-241,-15,-243
30892458,-2448,1344,15688,-188,272,-148
30896014,-2932,1904,15304,67,36,119
30899224,-3840,-1276,16912,-42,195,42
30902608,-4252,344,15828,-40,287,7
30905731,-2772,636,16680,-173,-6,-235
30909114,-3312,756,15464,-134,107,-91
30912501,-2888,2388,15868,100,-248,163
30915992,-4104,-1504,16340,-228,281,-152
30919611,-3188,568,15248,40,38,-2
30922647,-2612,120,16516,-288,187,-395
30926117,-2620,1212,15384,-277,246,-243
30929674,-2668,2160,15588,33,116,30
30932883,-3824,-828,16444,-95,214,-78
30936267,-4048,1164,15588,120,160,188
30939673,-3316,-372,16852,-263,78,-362
30943120,-2728,1216,15300,-137,20,-108
30946590,-2844,2208,16100,20,-75,85
30949799,-4264,-1220,16340,-35,21,27
30953096,-3124,368,15448,-16,252,67
30956306,-3180,-956,16496,-234,63,-380
30959776,-2276,1476,15524,-184,304,-126
30963400,-2488,2024,16036,-69,26,-125
30966716,-3656,-380,16252,-45,311,48
30970012,-4276,192,16060,103,52,282
30973222,-3916,-1336,16884,-179,152,-286
30976866,-2728,876,15612,-75,87,-75
30980075,-2376,1852,16308,-81,-49,-84
30983459,-3948,-612,16280,5,-66,176
30986668,-3172,684,15392,23,125,-46
30989903,-2812,36,16564,-158,182,-256
30993261,-2404,1244,15924,-316,282,-251
30996818,-2636,2208,15464,-195,223,-256
31000375,-3468,292,15768,-26,105,28
31003585,-4120,760,16000,116,215,197
31006881,-3136,-136,16864,-209,197,-199
31010438,-3152,588,15552,-92,42,-76
31013672,-2776,2148,16392,27,-161,102
31017031,-3356,624,15732,36,-130,122
31020327,-3004,960,15208,25,159,94
31023450,-3164,-672,16568,-282,154,-424
31027007,-2772,788,15680,-309,359,-215
31030477,-2636,1888,15772,-102,60,-140
31033947,-2940,1004,15732,-28,151,-50
31037334,-3388,1904,15392,106,22,253
31040651,-3828,-1052,16676,-13,191,-26
31044097,-3652,-76,15840,-85,-32,-57
31047393,-2456,1972,16396,-27,-38,-46
31050777,-3864,-632,16408,-8,-150,60
31054073,-2848,1764,15500,26,165,150
31057370,-3752,-1496,16480,-230,127,-318
31061013,-3576,268,15972,-212,282,-138
31064603,-2636,1136,16284,-316,396,-416
31068040,-2832,1020,15484,-150,53,-227
31071510,-2880,2716,15480,-59,25,3
31074633,-4276,-1524,16640,-4,84,65
31077842,-3932,468,15832,140,-2,145
31081052,-2420,748,16204,-222,28,-278
31084436,-3176,728,15676,81,-105,156
31087757,-2800,1980,15592,-76,129,105
31091115,-3840,-1448,16172,-32,201,-165
31094672,-3932,352,15836,-92,318,33
31097882,-2872,168,16364,-312,250,-426
31101352,-2932,976,15536,-81,137,-40
31104648,-2392,2808,15796,6,-81,185
31107858,-4220,-1268,16160,-79,221,-51
31111328,-3748,112,15644,-57,-52,-20
31114649,-2732,-240,15832,-252,266,-350
31118181,-2944,876,16016,53,-211,58
31121391,-2780,1808,15504,-137,155,-37
31124861,-3556,-672,15516,46,67,0
31127897,-3748,188,15884,-231,416,-155
31131367,-2388,1204,16308,-366,339,-412
31134924,-2976,980,15512,-86,104,-188
31138332,-2772,2764,15448,-162,71,-118
31141777,-3764,-276,15332,23,107,85
31144987,-4052,88,15900,107,-56,115
31148197,-2368,832,16256,-220,64,-250
31151580,-2764,812,15496,-31,-44,-77
31154876,-2672,2036,15800,-51,92,116
31158173,-3976,-1616,16448,-76,221,-181
31161730,-3804,392,15940,-110,232,-18
31165182,-2928,-40,16492,-297,341,-368
31168583,-3140,728,15584,-180,144,-277
31172053,-2660,2624,16076,16,-2,144
31175263,-4516,-1140,15940,2,27,135
31178473,-3624,864,15488,211,-102,229
31181856,-2548,-196,16208,-359,199,-391
31185412,-2964,668,15220,-22,-70,-113
31188820,-2540,1736,16008,-171,154,-31
31192266,-3580,-572,15768,-80,115,-21
31195649,-3796,876,15472,52,274,116
31198859,-3164,-752,16852,-339,280,-407
31202416,-3604,292,15528,-134,305,-195
31205885,-2532,2220,16404,-107,-82,-27
31209356,-2772,1008,15320,-4,14,68
31212482,-3284,1708,15252,155,-187,237
31215973,-3068,-1044,16152,-282,301,-336
31219592,-3204,256,15500,-9,48,-74
31222715,-2468,1336,16400,-245,120,-208
31226272,-2336,1464,15500,-129,202,-106
31229829,-3288,1632,15228,66,101,171
31233125,-3652,-1156,16644,-68,324,-2
31236508,-4288,164,15796,-29,183,-42
31239829,-2528,1332,16552,-232,113,-267
31243361,-2660,1124,15240,-130,-13,-86
31246832,-2964,2280,15504,170,-154,282
31250302,-3932,-776,16176,-57,44,103
31253598,-3212,680,15392,26,65,-50
31256721,-2660,392,16376,-302,104,-341
31260191,-2252,1232,15816,-245,231,-289
31263795,-2836,2304,15456,47,114,126
31267079,-3940,-1452,16772,-27,137,56
31270428,-4208,832,15724,55,231,134
31273637,-3092,48,16620,-250,26,-305
31276934,-2980,1084,15188,-143,92,-117
31280404,-2892,2292,16212,80,-221,141
31283787,-4180,-1276,16448,-99,250,-6
31287174,-3176,1068,15232,20,71,80
31290318,-2952,-708,16568,-281,182,-417
31293850,-2508,1460,15476,-288,316,-230
31297407,-2684,1784,16064,-54,66,-95
31300703,-3628,-344,15964,-93,204,-15
31304087,-3740,1692,15500,161,37,299
31307383,-3696,-988,16856,-313,240,-335
31310940,-2804,1016,15228,-58,-47,-28
31314348,-2760,1740,16468,-55,-16,-72
31317706,-3896,-248,15952,10,-191,60
31321003,-2956,1604,15464,49,242,141
31324299,-3440,-1360,16772,-234,144,-394
31327943,-3444,404,15856,-206,357,-152
31331413,-2508,1440,16316,-221,106,-284
31334970,-2704,1064,15540,-127,98,-155
31338464,-2988,2660,15224,95,26,343
31341649,-4100,-1624,16848,4,68,93
31344772,-2868,684,15708,26,86,59
31347809,-2988,2404,15952,-164,4,-218
31351192,-3480,256,15940,49,-106,179
31354488,-3108,948,15372,17,123,51
31357611,-3076,-608,16572,-76,223,-201
31361081,-2736,700,15828,-295,312,-258
31364598,-2528,1972,15936,-282,286,-404
31368143,-2760,968,15392,-58,45,-25
31371318,-3616,1648,15196,146,162,299
31374701,-3568,-992,16904,-91,158,-99
31378084,-3572,96,15960,-31,4,-52
31381121,-2648,1924,16356,-82,-92,-44
31384504,-3792,-532,16180,67,-185,56
31387825,-2688,1816,15284,-61,260,107
31391184,-3696,-1496,16636,-179,74,-325
31394740,-3372,420,15892,-275,455,-157
31398210,-2576,1384,16284,-175,122,-266
31401767,-2980,856,15436,-68,146,-201
31405150,-2904,2640,15476,90,-31,293
31408447,-4312,-1520,16468,28,112,103
31411830,-4040,88,15904,97,-70,62
31414891,-2536,888,16244,-168,36,-217
31418249,-3188,508,15648,25,-90,155
31421459,-3192,980,15416,-4,70,125
31424582,-4084,-1524,16424,-151,235,-214
31428226,-2796,704,15524,-250,288,-242
31431696,-2800,308,16480,-334,330,-408
31435166,-2880,936,15548,-54,88,-99
31438400,-3540,1772,15344,64,21,196
31441585,-4372,-1472,16208,-93,135,-19
31445055,-3716,192,15796,-74,111,-111
31448439,-2676,1876,16292,-287,136,-334
31451995,-2944,844,15816,91,-138,110
31455292,-2868,1904,15200,-172,145,-12
31458762,-3828,-984,15852,56,160,-35
31462062,-3444,328,15780,-244,326,-152
31465576,-3312,-772,16296,-326,338,-374
31469120,-2820,996,15380,-143,151,-189
31472555,-2440,2452,16244,-125,-49,-2
31475938,-3980,-568,15740,63,174,94
31479148,-3920,252,15968,128,-181,234
31482531,-3348,-1196,16148,-275,290,-334
31486175,-2812,952,15504,-53,93,-114
31489496,-2432,1232,16520,-194,34,-203
31492941,-3196,492,15524,3,118,32
31495978,-3780,280,15908,-36,268,31
31499187,-2896,172,16648,-313,390,-259
31502657,-3112,492,15532,-144,148,-304
31506127,-2376,2644,16000,-222,85,-250
31509597,-3524,400,15512,33,-49,116
31512832,-3440,1160,15084,168,-1,230
31516103,-2728,-440,16084,-196,189,-156
31519660,-3064,640,15232,4,32,-122
31522783,-2492,1768,16076,-194,66,-59
31526167,-3528,-616,15636,-24,84,-31
31529463,-3668,1024,15368,45,169,146
31532760,-3480,-920,16456,-315,340,-380
31536316,-3780,292,15660,-128,248,-180
31539811,-2440,2088,16316,-163,13,-119
31543256,-2792,1084,15384,-30,40,-2
31546466,-2988,2028,14924,120,-174,217
31549936,-3432,-1256,16044,17,90,95
31553146,-3312,236,15444,-49,39,-138
31556442,-2428,1164,16460,-192,85,-197
31559912,-3052,384,15404,-190,208,-127
31563442,-2924,2076,15512,77,150,148
31566679,-3864,-1328,16764,-239,289,-190
31570357,-4472,168,15940,27,214,35
31573445,-2508,828,16392,-248,88,-260
31576829,-3388,592,15456,-97,-55,-37
31580125,-3000,2376,15904,99,-121,118
31583508,-4056,-1448,16144,-109,135,-57
31587069,-3356,640,15240,93,125,72
31590213,-2764,-72,16708,-311,64,-439
31593571,-2580,1088,15468,12,206,9
31596694,-3320,1624,15404,-22,135,128
31600077,-3984,-604,16464,4,224,44
31603201,-4056,64,16392,-131,206,-168
31606584,-2660,1628,16344,-187,115,-122
31610140,-2668,924,15360,-66,-46,-46
31613462,-2884,2464,15244,145,-126,225
31616907,-3880,-1548,16280,25,35,176
31620204,-3224,464,15304,-20,86,-125
31623500,-2572,708,16512,-232,97,-231
31626883,-2860,872,15472,-265,256,-209
31630353,-2720,2376,15440,58,155,106
31633650,-4112,-1256,16840,-37,144,96
31637036,-4304,504,15948,50,243,121
31640267,-3008,100,16332,-283,80,-310
31643626,-3204,852,15392,-69,-70,-55
31646923,-3200,2128,16528,2,-97,60
31650046,-4096,-1272,16072,-42,96,13
31653342,-3344,196,15172,-24,-2,-157
31656639,-2128,1704,16140,-275,68,-369
31660108,-2396,1264,15676,-154,251,-108
31663713,-3104,1784,15244,-95,11,-150
31667049,-3412,-404,16216,-25,308,24
31670384,-4232,268,16104,-43,165,-67
31673642,-2508,1168,16536,-205,193,-306
31677198,-2848,856,15264,-120,-65,-128
31680668,-2768,2632,15592,-67,-96,-70
31684052,-3992,-608,16388,13,-19,142
31687352,-3420,596,15376,28,83,-26
31690496,-2772,116,16432,-201,190,-279
31693941,-2444,1116,15724,-224,270,-186
31697498,-2740,2132,15576,-173,267,-282
31701055,-3320,388,15896,-26,87,43
31704178,-4200,1064,15852,64,262,178
31707474,-3460,-404,16784,-111,95,-119
31710944,-3120,440,15600,-129,90,-115
31714352,-2696,2564,16056,60,-192,106
31717711,-3380,228,16072,129,-144,197
31721094,-3028,1224,15160,-38,213,-17
31724477,-3024,-876,16560,32,103,-143
31727860,-3112,344,15788,-351,404,-261
31731330,-2372,2184,15916,-346,224,-445
31734887,-3028,932,15524,-27,146,-34
31738208,-3376,2040,15340,87,22,261
31741393,-3844,-1168,16544,-21,231,-12
31744863,-3740,32,15892,-31,-95,-7
31747986,-2612,1768,16612,-69,37,-67
31751283,-3976,-364,16128,23,-195,35
31754579,-2796,1912,15532,15,223,116
31757876,-3808,-1624,16628,-177,106,-309
31761519,-3452,312,15952,-198,350,-110
31765036,-2604,1032,16108,-254,216,-348
31768546,-2884,1076,15616,-107,16,-208
31772051,-2596,2764,15500,26,91,293
31775226,-4420,-1620,16336,46,-6,131
31778522,-3768,352,15868,128,70,141
31781732,-2356,780,16104,-238,72,-297
31785115,-3260,624,15920,81,-112,163
31788436,-2756,1940,15772,-117,119,78
31791795,-3864,-1448,16116,8,212,-123
31795178,-3040,436,15692,-50,242,45
31798388,-2752,-36,16392,-311,316,-403
31801858,-2956,1004,15648,-49,53,-45
31805155,-3284,2112,15100,-38,-22,135
31808538,-4352,-1252,15880,-34,207,22
31811921,-3940,-24,16272,30,-42,25
31815069,-2576,1592,16328,-346,312,-421
31818601,-2832,1040,15624,46,-209,31
31821897,-2684,1776,15408,-30,257,105
31825281,-3508,-332,15640,-10,125,-47
31828664,-3648,180,15920,-133,367,-102
31832134,-2520,896,16328,-345,345,-380
31835604,-2944,916,15412,-83,88,-181
31838925,-2556,2820,15552,36,-37,281
31842197,-3936,-228,15576,31,30,118
31845407,-3880,480,15816,143,43,207
31848616,-2508,360,16156,-285,104,-345
31852086,-3116,764,15896,-1,-28,-70
31855296,-2596,1796,15856,-88,88,54
31858506,-3832,-1004,15944,9,205,-116
31861889,-3112,212,15940,-14,144,106
31865233,-2980,-224,16664,-348,351,-438
31868742,-2824,1104,15620,-61,21,-97
31872077,-3284,2216,15236,-26,-52,124
31875422,-4000,-836,15856,-79,202,-33
31878805,-4024,28,15928,66,-34,86
31881842,-2396,1424,16552,-384,351,-431
31885398,-2808,1080,15556,60,-217,58
31888719,-2768,1868,15408,-63,219,78
31891991,-3932,-1516,16544,39,59,-9
31895201,-3688,184,15908,-154,370,-47
31898584,-2716,816,16072,-273,171,-386
31902054,-2960,1120,15372,-89,155,-182
31905524,-2508,2800,15868,19,-41,203
31908821,-4400,-1392,16212,69,51,153
31912121,-3832,344,15832,100,-44,180
31915438,-2428,372,16088,-234,185,-381
31918884,-3220,676,15904,-28,-86,-105
31922267,-2564,1996,15892,-109,152,41
31925650,-3840,-1092,15824,0,168,-106
31929033,-3796,592,15808,18,149,83
31932157,-3068,-216,16672,-349,334,-421
31935713,-2844,1060,15592,-178,175,-248
31939295,-2368,2508,16200,-67,76,72
31942480,-4028,-768,15920,-9,58,80
31945603,-3908,76,16072,198,-78,237
31948813,-2552,1316,16192,-346,216,-386
31952369,-2824,1004,15584,57,-98,14
31955579,-2716,1916,15432,-194,91,-87
31958962,-3424,-224,15516,41,165,-23
31962262,-3860,192,15832,-158,288,-19
31965690,-2544,380,16400,-285,298,-322
31969112,-3004,896,15336,-153,151,-270
31972617,-2460,2744,15616,-215,-37,-164
31976139,-3608,220,15404,59,131,121
31979349,-3832,644,15632,168,-118,215
31982732,-3684,-1552,16328,-263,319,-274
31986375,-2824,740,15492,-16,-148,-133
31989870,-2556,796,16404,-238,22,-225
31993229,-2928,752,15432,-19,109,-55
31996525,-3820,724,15696,64,43,79
31999561,-3160,-640,16524,-219,363,-134
32003118,-3332,604,15596,-159,133,-281
32006588,-2584,2384,16208,-239,121,-261
32010145,-3104,824,15324,-3,-97,44
32013292,-3256,1648,14928,196,-69,253
32016651,-4396,-1640,16332,-170,120,-71
32020208,-2892,540,15364,40,52,-126
32023418,-2696,1684,16380,-314,113,-360
32026974,-2496,1264,15576,-63,165,-57
32030358,-3228,1676,15444,-81,92,-79
32033654,-3852,-676,16348,-42,214,43
32036951,-4000,-60,15904,-123,256,-144
32040445,-2596,1776,16480,-244,74,-338
32043891,-2892,896,15580,-80,32,-41
32047100,-2840,2564,14832,139,-195,210
32050570,-4200,-1072,16740,86,4,156
32053780,-3000,428,15500,-80,144,-136
32057163,-2684,832,16336,-222,85,-212
32060547,-2372,1156,15796,-259,257,-220
32064204,-2696,2328,15536,-176,179,-293
32067660,-3380,232,15732,-60,133,102
32070956,-4152,552,15880,64,239,91
32074118,-3272,188,16740,-223,26,-295
32077463,-3148,660,15680,-108,-21,-93
32080846,-2872,2396,15860,21,-145,95
32084143,-4324,-1404,16344,115,-180,209
32087724,-3168,828,15512,-81,307,-33
32091000,-2988,-416,16548,-238,46,-342
32094466,-2728,664,15924,-280,422,-229
32097936,-2420,2388,15728,-70,112,-89
32101319,-3096,868,15468,57,64,57
32104355,-3688,1620,15596,82,91,221
32107565,-3612,-960,16604,-198,210,-286
32111122,-2932,956,15576,-57,-11,-40
32114443,-2628,2088,16548,-18,-68,-43
32117802,-4188,-792,16524,14,-77,146
32121098,-3008,656,15292,-33,226,56
32124308,-3480,-1376,16572,-199,143,-271
32127951,-2340,1132,15840,-249,284,-234
32131508,-2352,1344,16296,-180,247,-304
32135065,-3404,332,15812,-95,36,-145
32138386,-3016,2476,15464,131,83,320
32141658,-4072,-1376,16548,-209,146,-238
32145301,-4028,200,15948,122,-8,119
32148511,-2228,1208,16132,-241,63,-242
32151981,-3592,276,15884,46,-205,13
32155191,-2620,2016,15652,-110,273,63
32158574,-4036,-1564,16440,-26,68,-170
32162048,-2776,664,16088,-127,386,-35
32165474,-2632,544,16320,-314,206,-399
32168897,-3152,852,15752,-92,177,-233
32172281,-2648,2660,15996,-32,-49,151
32175699,-4188,-1220,16308,-92,255,-41
32179134,-3712,796,15340,191,-109,219
32182517,-2432,176,16012,-296,206,-375
32185987,-2924,1008,15700,-33,-25,-95
32189395,-2548,2132,16100,-84,80,55
32192580,-3912,-1068,16100,-13,187,-59
32196050,-3564,844,15696,-19,196,55
32199260,-3260,-712,16620,-330,397,-398
32202816,-2924,1040,15592,-182,183,-221
32206373,-2428,2240,16620,-61,80,8
32209496,-4048,-500,16004,-6,84,89
32212644,-4104,-28,15884,109,39,47
32215742,-2260,1196,16396,-359,272,-403
32219299,-2856,932,15476,18,-130,-7
32222509,-2684,1980,15708,-61,154,99
32225805,-4056,-1784,16504,41,118,-1
32229102,-3788,340,15916,-138,311,-41
32232485,-2692,396,16436,-298,249,-412
32235955,-3056,848,15328,-172,207,-243
32239450,-2520,2864,15744,18,-25,211
32242722,-4396,-1400,16212,82,72,154
32246018,-3700,780,15460,127,-114,187
32249401,-2624,-88,15944,-263,251,-391
32252871,-2736,664,15372,-56,-63,-166
32256255,-2664,1976,16012,-77,150,94
32259551,-3756,-984,15936,-86,148,-4
32262895,-3652,940,15640,101,173,144
32266144,-3388,-748,16504,-413,361,-399
32269701,-2816,1268,15484,-152,168,-252
32273258,-2432,2332,16048,-164,77,-4
32276589,-4040,-728,15756,6,-123,70
32279764,-3064,1864,14908,179,-45,253
32283147,-3172,-1112,15868,-329,198,-367
32286791,-2944,400,15228,-14,103,-154
32290198,-2640,1520,16312,-174,14,-84
32293557,-3396,-68,15680,-125,197,-69
32296940,-3144,1852,15400,71,106,198
32300237,-3996,-1484,16648,-271,382,-309
32303880,-3940,220,16240,-105,251,-117
32307350,-2772,1240,16360,-180,34,-183
32310820,-2704,1016,15544,-91,5,-31
32314055,-2956,2404,15456,94,-166,171
32317413,-4012,-1700,16360,84,-24,167
32320797,-3228,536,15380,-25,92,-111
32324093,-2608,460,16544,-261,119,-288
32327563,-2336,1148,15616,-273,253,-211
32331120,-2656,2260,15468,76,127,79
32334330,-4092,-1164,16484,-18,106,99
32337737,-4208,456,16076,56,231,159
32340922,-3204,20,16640,-278,47,-349
32344219,-3096,744,15328,78,-62,78
32347342,-2840,2252,15180,-22,-48,28
32350639,-4360,-1332,16420,-9,16,92
32353848,-3000,172,15148,-107,105,-200
32357318,-2620,1576,16240,-247,17,-360
32360788,-2440,1180,15916,-186,270,-98
32364305,-2940,1816,15248,-102,37,-166
32367728,-3728,-300,16272,-39,267,96
32371025,-4096,136,16172,-70,199,-63
32374321,-2752,1084,16400,-167,226,-318
32377913,-2812,832,15360,-99,-98,-82
32381175,-2860,2468,15752,-50,-7,-80
32384471,-3936,-632,16200,16,-55,142
32387792,-3332,556,15240,29,151,-28
32390977,-2880,304,16564,-268,24,-333
32394361,-2328,1176,15932,-228,300,-250
32397917,-2656,2296,15204,-43,120,47
32401214,-3996,-1084,16420,10,80,96
32404423,-4064,864,16140,30,214,147
32407633,-3052,-292,16292,-257,139,-385
32411190,-3084,1188,14836,-52,68,-66
32414511,-3016,2148,16836,52,-291,107
32417870,-4056,-1212,16112,-154,332,-48
32421427,-3108,956,15088,107,-37,64
32424636,-2944,-780,16832,-266,226,-404
32428193,-2488,1348,15680,-313,326,-249
32431750,-2368,2032,15680,-77,88,-133
32435133,-3548,-192,16084,-78,141,-57
32438541,-3624,1744,15736,83,72,254
32441726,-3744,-1156,16492,-281,224,-386
32445370,-3544,316,15684,-55,-16,-69
32448666,-2600,1732,16668,-91,-30,-48
32452049,-3816,-92,15916,-44,-77,45
32455259,-2792,1852,15428,97,129,133
32458556,-3608,-1440,16808,-236,142,-356
32462203,-3612,204,15708,-200,337,-131
32465716,-2524,1332,16092,-197,130,-302
32469226,-2892,1092,15804,-84,59,-154
32472609,-2768,2740,15292,31,113,278
32475905,-4388,-1884,16468,79,-19,151
32479324,-4008,280,16048,55,104,80
32482412,-2400,696,16268,-218,29,-267
32485795,-3388,420,15600,32,-33,-19
32489029,-2816,2052,16044,-65,50,114
32492301,-3800,-1408,16328,-64,246,-197
32495858,-2848,584,15532,-59,226,27
32499068,-2672,164,16280,-290,324,-435
32502538,-3068,1000,15656,-43,23,0
32505661,-3396,1776,15392,92,128,273
32508957,-4240,-1188,16132,-60,164,-10
32512431,-3752,160,16024,-9,-61,4
32515488,-2632,1436,16564,-100,20,-82
32518847,-3696,-228,15892,2,-160,41
32522057,-2836,1744,15332,40,226,135
32525353,-3680,-1500,16856,-211,133,-355
32528997,-3476,252,15684,-193,401,-136
32532467,-2504,1424,16004,-218,151,-300
32536023,-2848,1092,15448,-41,78,-107
32539431,-2900,2616,15492,8,21,262
32542530,-4268,-1548,16340,-135,205,-182
32546173,-3840,56,15864,66,9,79
32549036,-2184,1116,16292,-215,56,-231
32552506,-3520,176,15876,-1,-98,160
32555716,-3060,1276,15232,-81,157,68
32559012,-3976,-1692,16272,-70,217,-176
32562628,-2784,844,15780,-88,267,-35
32565865,-2764,164,16344,-255,322,-387
32569335,-2968,956,15724,-51,45,-50
32572545,-3600,1860,15504,49,-37,175
32575842,-4304,-1364,15972,-97,177,-66
32579350,-3664,216,15632,11,1,-24
32582348,-2608,1904,16584,-90,-126,-79
32585818,-2888,884,15568,20,-181,70
32589052,-2716,1944,15296,-23,168,111
32592411,-3812,-1724,16948,46,61,-12
32595707,-3384,372,15936,-240,409,-182
32599177,-2684,1068,16112,-211,124,-280
32602734,-2940,1056,15524,-72,150,-192
32606204,-2912,2636,15476,66,-112,304
32609587,-4040,-436,15544,35,145,91
32612822,-4032,164,15884,113,-118,108
32616180,-2304,984,16584,-176,100,-265
32619650,-2848,832,15396,-40,-55,-44
32622947,-2644,2112,15772,22,84,96
32626070,-3948,-1532,16408,-110,170,-192
32629713,-3768,488,15744,-79,226,-31
32633010,-2924,-88,16424,-319,288,-403
32636480,-3252,544,15552,-186,138,-301
32639974,-2548,2680,15980,31,20,213
32643160,-4476,-1192,16064,-85,144,-28
32646630,-3520,1068,15328,186,-14,223
32650013,-2600,-400,16000,-287,133,-371
32653570,-3088,500,15196,-8,15,-155
32656779,-2504,2056,16208,-134,31,-11
32660163,-3840,-740,16048,-56,161,-9
32663506,-3512,1152,15356,19,186,89
32666669,-3328,-880,16688,-288,300,-362
32670226,-2892,1056,15772,-144,308,-200
32673782,-2324,2356,16036,-100,-53,-38
32677252,-3992,-508,15652,37,32,86
32680410,-3092,1844,15232,126,-168,193
32683845,-3308,-1052,15948,-276,329,-284
32687513,-3220,88,15172,-15,13,-135
32690699,-2324,1468,16252,-188,85,-193
32694169,-3132,316,15348,-182,242,-88
32697552,-3032,1948,15252,87,82,110
32700762,-3912,-1364,16568,-241,325,-191
32704405,-4172,128,16144,-23,188,-51
32707702,-2684,1056,16392,-248,126,-266
32711258,-2704,1168,15328,-77,-83,-52
32714666,-3116,2184,15832,89,-123,191
32718025,-4012,-1428,16168,-63,-35,104
32721495,-3256,708,15224,82,119,16
32724618,-2760,36,16884,-314,49,-365
32727914,-2612,1256,15492,-239,339,-212
32731471,-2544,2196,15544,-41,71,12
32734681,-3944,-952,16348,-97,259,-9
32738002,-3768,204,15900,44,190,167
32741187,-3456,-516,16532,-232,73,-349
32744657,-2980,1068,15280,-29,-50,26
32747954,-3012,1936,15308,20,-146,33
32751250,-4172,-916,16292,-62,148,46
32754547,-3272,344,15280,35,-18,-89
32757756,-2392,1300,16544,-272,157,-224
32761313,-2400,1344,15620,-182,162,-129
32764917,-2984,1988,15440,-88,112,-148
32768340,-3540,-172,16068,-60,183,-5
32771636,-4360,312,15776,27,262,7
32774673,-2672,844,16436,-235,57,-260
32778056,-2848,840,15584,-110,-66,-63
32781474,-2868,2336,15892,74,-113,175
32784822,-4104,-1600,16160,51,-95,164
32788230,-3208,676,15264,12,174,-30
32791415,-2736,36,16644,-278,41,-348
32794712,-2652,1192,15500,-283,368,-286
32798269,-2516,2296,15508,16,-17,26
32801478,-3920,-964,16428,-122,332,-77
32804948,-4064,1260,15620,57,115,159
32808245,-3468,-452,16736,-213,152,-333
32811802,-2848,1040,15236,-157,25,-97
32815209,-2696,2316,16316,40,-163,73
32818481,-4260,-1216,16312,-66,113,48
32821865,-2944,1272,15316,5,99,25
32824901,-3240,-1060,16508,-261,189,-359
32828544,-2552,1264,15612,-193,187,-165
32832101,-2372,1868,16024,-108,131,-177
32835658,-3736,-220,16224,-95,105,-84
32839066,-3148,2248,15188,119,65,302
32842338,-4072,-1368,16616,-214,195,-251
32845981,-3984,68,15992,4,0,3
32848670,-2992,2368,15796,-142,41,-136
32852140,-3640,-204,16152,53,-111,151
32855524,-3112,692,15372,-23,266,82
32858733,-3656,-1620,16260,-166,120,-268
32862380,-2736,956,15612,-290,371,-249
32865894,-2368,1000,16420,-306,174,-357
32869404,-3076,772,15456,8,182,27
32872440,-3964,1072,15516,65,-21,294
32875736,-4044,-1588,16532,-149,197,-197
32879380,-3456,320,15636,148,21,197
32882624,-2348,492,16060,-242,106,-311
32886060,-3176,584,15960,37,-136,117
32889381,-2740,1540,15280,-85,99,26
32892566,-3544,-1428,16636,9,203,-103
32895949,-3240,412,15960,-280,309,-237
32899419,-2476,1744,16152,-339,401,-440
32902976,-2932,1092,15436,-75,9,-106
32906272,-3164,2380,15216,-53,10,47
32909482,-4180,-1500,16932,-16,78,6
32912716,-3844,140,15760,48,88,46
32915728,-2704,1220,16360,-165,-4,-149
32919198,-3628,8,16152,129,-100,194
32922408,-3020,788,15224,-119,232,82
32925704,-3764,-1512,16148,-76,117,-262
32929261,-2624,1000,15748,-148,347,-72
32932731,-2548,776,16236,-290,213,-382
32936201,-2980,736,15484,-127,183,-272
32939696,-2716,2964,15580,44,-97,272
32942968,-4220,-1592,16436,-117,260,-167
32946611,-3580,896,15340,168,-100,176
32949994,-2420,368,16312,-267,197,-318
32953464,-2948,800,15472,-29,-58,-95
32956761,-2576,2036,15564,-77,154,16
32960057,-3964,-1120,15872,32,123,-47
32963489,-3988,500,15940,-36,200,102
32966737,-2900,-380,16104,-359,443,-457
32970294,-3460,456,15484,-95,85,-229
32973590,-2448,2588,16436,-116,52,50
32976887,-4132,-840,15584,-8,96,29
32980010,-4020,104,15928,230,-87,250
32983341,-3000,-812,16336,-383,267,-394
32986863,-2764,876,15812,66,-107,-7
32990097,-2576,2028,15400,-226,81,-164
32993543,-3188,-28,15368,95,108,33
32996666,-3752,104,16024,-209,384,-82
33000049,-2708,652,16240,-271,282,-314
33003519,-2912,788,15268,-156,210,-278
33006989,-2656,2724,15884,-172,-51,-157
33010546,-3628,-12,15504,14,162,124
33013780,-3796,820,15448,188,-186,196
33017139,-3740,-1568,16280,-223,301,-240
33020782,-2952,708,15268,-58,-75,-141
33024166,-2448,760,16232,-248,18,-310
33027549,-2804,812,15404,-45,123,-9
33030759,-3632,828,15684,14,195,61
33033882,-3188,-524,16520,-179,408,-150
33037442,-3516,288,15544,-185,148,-282
33040933,-2424,2560,16416,-237,112,-256
33044465,-3244,500,15332,-27,10,41
33047588,-3260,1812,14816,241,-76,243
33050971,-3072,-924,16316,-129,136,-64
33054441,-3128,504,15104,-7,66,-154
33057651,-2480,1508,15932,-207,27,-131
33061121,-2424,1256,15612,-75,168,-68
33064605,-3412,1496,15488,53,148,134
33067801,-3620,-1272,16632,-104,204,-36
33071358,-4100,304,15676,-80,240,-111
33074741,-2632,1524,16580,-232,86,-306
33078211,-2672,976,15644,-88,60,-72
33081421,-2956,2356,14948,159,-199,233
33084930,-4208,-1028,16556,82,-13,163
33088298,-3148,492,15392,-94,109,-145
33091657,-2652,692,16412,-140,106,-359
33095127,-2432,1216,15932,-277,272,-188
33098684,-2796,2312,15556,-184,113,-250
33102241,-3264,148,15728,-30,207,112
33105537,-4408,460,15992,43,176,70
33108660,-2820,672,16624,-213,258,-289
33112133,-3076,588,15664,-106,-74,-53
33115538,-2900,2600,15848,-192,124,-213
33119070,-3532,196,16180,108,-246,202
33122453,-3016,732,15332,-36,329,-29
33125750,-3896,-1596,16292,-89,86,-236
33129220,-2648,828,15916,-252,378,-257
33132690,-2540,2380,15564,-335,319,-415
33136247,-3196,848,15580,35,40,50
33139307,-3912,1360,15888,64,172,214
33142579,-3544,-720,16808,-118,140,-111
33146136,-3628,-76,15844,-98,51,-48
33149346,-2596,2352,16260,5,-124,1
33152469,-4284,-1204,16456,131,-149,173
33156026,-2816,1500,15308,-84,193,31
33159322,-3564,-1220,16468,-146,160,-307
33163013,-3552,140,15936,-282,352,-188
33166436,-2392,1344,16020,-339,339,-442
33169992,-2620,1424,15452,-102,41,-142
33173462,-3220,2216,15448,-30,-62,154
33176845,-4192,-1168,15892,-88,260,-75
33180316,-3896,360,15892,182,-200,271
33183699,-2976,-1164,16268,-345,383,-390
33187377,-2752,1056,15632,-63,9,-172
33190663,-2596,1476,16036,-169,118,-129
33194196,-3204,-64,15540,63,55,-11
33197319,-3924,24,15912,66,144,135
33200442,-2780,700,16196,-329,322,-329
33203912,-2836,728,15636,-122,90,-271
33207295,-2736,2820,15876,-211,123,-128
33210852,-3596,60,15264,2,65,97
33213739,-3856,688,15528,208,-77,223
33217011,-2332,308,16408,-290,146,-343
33220481,-3040,656,15384,3,-35,-83
33223604,-2360,2128,15756,-124,130,9
33226900,-4092,-1052,16280,53,168,-47
33230284,-3156,368,16044,-88,255,25
33233493,-3108,-200,16284,-240,338,-397
33237054,-2900,1028,15580,-68,25,-118
33240458,-2600,2200,16760,-99,-33,5
33243643,-3952,-496,15368,-80,165,57
33246940,-4372,-176,15596,123,-38,56
33250236,-2224,1624,16548,-416,318,-434
33253793,-2836,912,15524,50,-139,49
33257003,-2700,1924,15376,-49,144,73
33260299,-3108,44,15848,63,66,87
33263296,-3828,224,16048,-192,368,-78
33266632,-2664,540,16352,-248,163,-422
33270102,-3064,1048,15712,-125,232,-241
33273659,-2772,2892,15832,23,-135,239
33277042,-3936,-1288,16228,7,127,87
33280252,-3784,552,15268,188,-136,198
33283635,-2348,428,15936,-245,182,-337
33287108,-2852,816,15644,-56,-28,-77
33290444,-2612,1976,15852,-90,126,-9
33293698,-3980,-984,16104,22,133,-25
33296994,-3276,268,15848,-44,236,61
33300204,-3160,-396,16292,-350,397,-469
33303761,-2896,932,15564,-54,60,-87
33306971,-3008,2640,15432,-98,68,-16
33310267,-3932,-376,15504,-10,46,83
33313501,-4184,-200,15916,51,70,35
33316600,-2248,1500,16452,-164,-54,-164
33320157,-3016,868,15688,37,-82,53
33323280,-2620,1984,15516,-71,120,51
33326576,-4104,-1632,16564,-56,210,-181
33330133,-3884,272,16020,-120,295,-33
33333516,-2584,484,16144,-278,275,-385
33336990,-3072,876,15648,-148,160,-242
33340481,-2584,2756,15864,29,-50,214
33343753,-4220,-1272,16124,8,118,117
33347049,-3900,560,15536,182,-135,201
33350432,-2364,212,15888,-324,215,-391
33353902,-3008,700,15664,-49,-94,-101
33357286,-2424,2200,16152,-128,210,-22
33360756,-3908,-1124,16148,9,37,43
33363927,-3608,780,15652,-11,337,68
33367088,-3100,-644,16304,-300,297,-410
33370645,-2976,884,15664,-68,171,-141
33374028,-2432,2308,16460,-166,2,-30
33377325,-3956,-436,15448,40,136,104
33380621,-4192,-32,15920,163,-156,233
33384005,-2948,-964,16304,-332,259,-364
33387585,-2944,792,15620,-16,-102,-10
33390980,-2528,1480,16044,-187,35,-158
33394415,-3064,164,15424,18,203,48
33397538,-3920,128,15996,-126,273,-45
33400921,-3628,-1176,16584,-237,381,-291
33404564,-3140,748,15292,-67,237,-62
33407861,-2612,1296,16560,-198,46,-231
33411331,-3568,212,15276,-17,56,97
33414478,-3680,984,15512,216,-95,238
33417750,-3796,-1624,16276,-252,314,-219
33421394,-3016,612,15228,-29,-74,-121
33424777,-2524,504,16292,-265,173,-325
33428247,-2672,1008,15388,-38,28,7
33431370,-3584,852,15640,-2,293,110
33434580,-3212,-840,16484,-133,224,-101
33438161,-3652,368,15692,-72,268,-174
33441520,-2468,2012,16548,-288,69,-324
33444990,-3012,988,15296,-4,55,46
33448026,-3384,1804,15208,207,-241,254
33451496,-2928,-916,16156,-130,144,-42
33454966,-3304,420,15000,-9,37,-69
33458089,-2400,1140,16320,-199,37,-244
33461559,-3080,488,15348,-132,260,-119
33465078,-3312,1484,15544,57,95,128
33468239,-3556,-1016,16532,-279,377,-277
33471882,-4288,296,15720,7,155,52
33474919,-2492,1040,16572,-240,151,-317
33478475,-3376,692,15284,-95,-44,-46
33481772,-3060,2188,15752,134,-150,200
33485242,-3860,-1420,16236,-247,220,-183
33488909,-3280,492,15192,57,69,-40
33492043,-2596,312,16536,-279,102,-316
33495478,-2608,924,15776,-273,247,-226
33498948,-2756,2292,15600,57,118,59
33502158,-4016,-1188,16456,-138,256,-76
33505715,-4040,944,15764,65,253,158
33508925,-3384,-356,16768,-256,73,-285
33512398,-3060,984,15308,-100,84,-93
33515716,-2852,2260,16348,18,-179,36
33518987,-4212,-1224,16132,-34,215,39
33522371,-3016,1108,15192,16,115,47
33525581,-3028,-708,16648,-279,161,-369
33529137,-2480,1260,15600,-306,354,-249
33532694,-2416,2080,15856,-93,44,-167
33536077,-3568,-176,16076,-67,180,-27
33539485,-3328,1900,15212,106,44,275
33542757,-4028,-1108,16676,-246,231,-241
33546401,-3868,24,16172,-25,-36,2
33549437,-2576,1692,16508,-99,42,-146
33552820,-3976,-428,16084,57,-120,196
33556203,-3144,644,15436,-21,237,78
33559413,-3644,-1372,16268,-164,95,-311
33563030,-2432,872,15840,-149,319,-109
33566440,-2396,1164,16304,-272,163,-366
33569996,-3200,544,15680,-62,56,-165
33573293,-2828,2492,15436,11,56,204
33576503,-4084,-1128,16144,-92,154,-144
33580060,-3280,184,15752,148,48,121
33583269,-2212,992,16332,-261,23,-291
33586652,-3156,380,15576,30,-47,158
33589886,-2756,1532,15156,-80,121,27
33593194,-4212,-1504,16444,18,238,-77
33596542,-2892,712,15860,-298,273,-273
33600012,-2580,1892,15756,-265,327,-405
33603569,-3108,948,15780,-86,82,-62
33606779,-3396,1960,15400,134,82,286
33610075,-4140,-1116,15960,-80,183,-12
33613570,-3936,20,15788,17,-35,12
33616581,-2572,1808,16496,-112,-91,-105
33620138,-2892,796,15580,39,-181,86
33623348,-2572,1888,15280,-53,206,85
33626644,-3920,-1544,16604,-152,114,-272
33630288,-3432,284,16076,-223,451,-153
33633758,-2672,940,16200,-282,260,-407
33637231,-2828,1108,15752,-91,166,-189
33640722,-2804,2660,15704,-151,-32,-55
33644168,-3868,-256,15396,-3,195,91
33647378,-4060,200,15780,151,-148,181
33650761,-2248,776,16432,-351,329,-381
33654231,-2796,1036,14988,-75,-62,-77
33657614,-2628,2048,15832,17,70,130
33660824,-4172,-1464,16760,-50,243,10
33664255,-3688,620,15744,-76,201,23
33667417,-2904,-112,16540,-326,345,-418
33670974,-3252,580,15488,-161,147,-298
33674444,-2592,2596,16156,-1,-30,177
33677740,-3932,-984,15876,-48,40,87
33680950,-3560,1160,15172,251,-114,246
33684420,-2424,-256,16224,-322,182,-373
33688000,-3200,456,15352,-40,16,-132
33691278,-2296,1788,15980,-160,67,-66
33694691,-3664,-500,15900,-28,109,2
33697866,-3524,1068,15684,-25,234,75
33701163,-3460,-808,16556,-259,272,-338
33704719,-3904,-12,15720,-155,330,-198
33708189,-2340,2296,16588,-100,-97,-82
33711659,-4136,-388,15572,-2,57,99
33714807,-3152,2032,15316,163,-218,190
33718252,-3136,-1256,16212,-238,308,-251
33721896,-3724,-56,15260,-57,63,-103
33725192,-2208,1472,16184,-152,88,-168
33728662,-2288,1268,15564,-156,205,-93
33732132,-3076,1976,15224,21,133,118
33735429,-3840,-1276,16572,-32,239,53
33738837,-4392,116,16096,-22,175,-10
33742109,-2484,1160,16508,-287,112,-298
33745665,-2636,1192,15276,-58,-75,-29
33749048,-3020,2288,15740,95,-92,153
33752345,-3904,-1352,16240,-15,-44,97
33755728,-3344,432,15476,61,184,-1
33758851,-2736,320,16328,-304,35,-365
33762238,-2648,1140,15424,-35,200,34
33765579,-2752,2224,15560,-23,29,24
33768741,-3856,-964,16204,-111,311,-85
33772211,-3876,180,15744,-125,167,-207
33775681,-3028,-192,16652,-248,109,-314
33779238,-3080,872,15164,-117,60,-102
33782621,-2812,2476,16616,86,-233,128
33786004,-4272,-1464,16416,-131,222,0
33789410,-3256,352,14924,33,50,73
33792424,-3256,-828,16796,-253,217,-408
33796015,-2384,1480,15724,-166,154,-144
33799537,-2588,1848,15764,-103,116,-173
33803094,-3516,-80,16000,-39,135,61
33806304,-4116,64,15892,125,51,295
33809427,-3552,-944,16488,-239,158,-340
33813008,-2816,912,15256,-91,28,-60
33816193,-2860,2348,15860,-92,-23,-82
33819576,-3840,-400,16124,2,64,158
33822699,-3472,472,15116,21,168,25
33825822,-2416,248,16344,-268,65,-417
33829206,-2600,1316,15340,-231,352,-163
33832762,-3008,1852,15484,-50,60,-66
33836059,-3696,-720,16276,-23,182,18
33839380,-4256,720,15884,26,159,174
33842565,-2844,-20,16528,-214,145,-371
33846035,-3196,880,15288,-94,13,-4
33849158,-3252,1960,15428,14,-142,71
33852455,-3848,-888,16236,-72,141,72
33855751,-3632,-104,15068,18,115,-123
33859134,-2052,1396,16616,-325,175,-482
33862739,-2424,1304,15448,-129,227,-70
33866161,-2832,1648,15892,-91,162,-179
33869631,-3128,12,15868,-36,92,47
33872667,-4488,192,15816,-35,326,11
33875877,-2520,1012,16572,-246,123,-354
33879434,-2632,1032,15328,-81,51,-10
33882730,-3184,2312,15788,99,-227,131
33886114,-3628,-136,16032,28,41,181
33889346,-3508,384,15140,8,117,-9
33892360,-2720,152,16644,-246,82,-387
33895746,-2760,1060,15448,-79,110,18
33899074,-2912,1972,15412,-12,103,-56
33902423,-3736,-644,16576,-96,217,-11
33905806,-3988,-52,15920,68,135,218
33909016,-3088,-392,16632,-324,190,-432
33912597,-3056,1104,15096,30,-99,99
33915782,-3016,2108,15536,-29,-58,-39
33919165,-3788,-728,16072,-46,73,114
33922462,-3464,136,15148,-16,158,-146
33925845,-2216,1284,16480,-260,84,-398
33929315,-2628,1188,15828,-172,317,-111
33932872,-2992,2100,15160,-175,100,-243
33936429,-3440,-48,16048,58,197,103
33939663,-4256,148,16272,49,77,238
33942761,-2700,692,16456,-183,186,-318
33946231,-2808,984,15296,-63,-48,-27
33949528,-2944,2328,16188,81,-197,110
33952911,-3536,36,15732,-32,67,140
33956034,-3332,628,15148,54,60,19
33959070,-2672,100,16792,-291,79,-396
33962503,-2600,1188,15532,-104,185,-31
33965924,-2792,2024,15464,-32,99,-17
33969220,-3644,-824,16316,-91,169,-52
33972603,-3916,268,16076,96,184,222
33975813,-3312,-468,16460,-325,134,-400
33979370,-3032,956,15084,20,24,71
33982406,-3080,2172,15636,143,-241,160
33985876,-3972,-876,16172,-53,158,103
33989283,-3388,116,14940,-16,-5,-118
33992556,-2524,1224,16536,-250,113,-397
33996113,-2344,1208,15784,-231,269,-146
33999704,-2616,1704,15776,-127,46,-230
34003139,-3352,80,16004,-46,250,82
34006262,-4192,436,16216,-5,178,-10
34009472,-2740,660,16452,-163,279,-234
34012967,-3020,776,15196,-117,-60,-77
34016325,-2960,2376,16180,154,-168,233
34019795,-3808,-492,15708,-64,46,121
34023092,-3248,668,14996,101,117,57
34026302,-2652,84,16664,-300,86,-393
34029598,-2480,1088,15732,-256,333,-230
34033155,-2868,2004,15468,-26,19,-10
34036451,-3844,-880,16268,-19,104,18
34039772,-3852,912,15752,44,180,168
34042958,-3020,-312,16540,-276,110,-342
34046514,-2896,1080,15160,-122,71,-73
34049898,-2712,2160,16612,67,-229,75
34053194,-4036,-1132,16380,-134,262,43
34056664,-2932,1180,15028,60,57,92
34059787,-3260,-864,16880,-257,208,-406
34063446,-2188,1312,15772,-329,331,-229
34066901,-2592,1916,15692,-59,100,-130
34070370,-3460,-168,16156,-72,91,-91
34073667,-3264,2176,15396,96,61,294
34076877,-3988,-1316,16632,-229,145,-284
34080520,-3884,-36,15904,-3,-15,11
34083643,-2688,1540,16756,-103,-13,-112
34087203,-3420,-88,15828,-43,-163,16
34090520,-2600,1884,15264,40,187,143
34093793,-4136,-1652,16772,-182,121,-296
34097437,-3432,324,15964,-189,386,-129
34100946,-2700,784,16056,-244,183,-360
34104377,-3004,1264,15532,-78,30,-174
34107760,-2572,2452,15908,-36,1,184
34110970,-4164,-1328,15780,-86,239,-133
34114551,-3980,332,15868,150,-108,205
34117910,-2456,608,16612,-244,87,-320
34121293,-2944,764,15100,-62,-2,-95
34124503,-2392,1988,15764,11,36,99
34127626,-4296,-1288,16796,-86,251,-157
34131182,-2816,408,15784,-76,215,26
34134392,-2920,-168,16184,-330,397,-439
34137973,-2868,1112,15656,-136,66,-225
34141419,-2448,2432,16256,-67,35,80
34144628,-4180,-676,15504,-1,115,12
34147838,-3756,156,15660,35,28,32
34150874,-2616,1388,17088,-109,-148,-124
34154518,-3024,808,15272,-44,4,18
34157554,-2668,1840,15380,27,-1,128
34160764,-3848,-1592,17124,-186,231,-332
34164456,-3424,396,15620,-240,344,-112
34167878,-2756,704,15964,-203,225,-296
34171348,-3084,728,15924,-183,198,-259
34174817,-2704,2732,15736,80,-93,291
34178114,-3824,-100,14904,27,196,131
34181411,-3932,448,15956,136,-117,154
34184794,-2684,356,16764,-271,299,-244
34188287,-2956,552,14932,-127,6,-145
34191560,-2376,2092,15892,68,54,155
34194770,-4268,-1464,17004,-62,151,27
34198153,-3468,588,15676,-61,290,29
34201398,-3112,-392,16392,-293,221,-381
34204920,-2984,1208,15756,-161,183,-230
34208477,-2460,2448,16148,-51,-31,74
34211773,-4400,-896,15600,1,-26,111
34215007,-3600,1120,15568,201,-78,269
34218366,-2656,-392,16472,-288,137,-363
34221923,-3464,208,14948,-76,145,-104
34225306,-2276,1968,16476,-52,-72,-53
34228689,-3736,-544,16164,-91,235,-48
34232073,-3440,1216,15164,27,157,139
34235369,-3444,-1168,16772,-261,365,-341
34239037,-3992,304,15788,-141,206,-140
34242483,-2400,1856,16228,-89,8,-77
34245692,-3948,-192,15448,-31,28,22
34248902,-3132,2060,15356,146,-209,201
34252372,-3236,-1088,16164,-297,303,-281
34256016,-3576,208,15304,33,-11,-95
34259225,-2288,1236,16428,-233,118,-250
34262830,-2192,1304,15648,-202,194,-127
34266339,-3052,2052,15148,77,153,141
34269635,-3940,-1468,16628,-38,139,80
34273019,-4052,600,16208,-24,240,-2
34276228,-3056,408,16448,-293,64,-275
34279612,-3128,784,14972,-133,-20,-136
34283082,-2876,2468,16292,85,-136,170
34286465,-4240,-1756,16236,9,-63,181
34289785,-3176,840,15260,53,137,10
34292884,-2956,-176,16776,-271,71,-382
34296354,-2548,1304,15580,-109,190,-54
34299824,-2716,2092,15552,-49,38,-45
34303156,-3684,-732,16348,-65,258,-9
34306417,-4032,352,16104,32,106,195
34309627,-3308,-708,16492,-195,165,-323
34313208,-3100,996,15224,-76,-10,-26
34316480,-2944,2184,15576,-2,-204,-10
34319864,-3716,-924,16088,-112,157,59
34323247,-3812,304,14816,35,72,-40
34326370,-2208,888,16468,-264,191,-408
34329840,-2164,1304,15668,-240,211,-143
34333397,-3120,1972,14976,-141,177,-237
34336957,-3096,324,15900,16,4,61
34339927,-4264,452,16216,27,283,76
34343026,-2576,636,16404,-320,53,-341
34346409,-3244,620,15080,-50,-5,-10
34349619,-2984,2288,16284,37,-162,104
34353002,-3892,-1328,16272,-96,222,-31
34356472,-3360,560,15160,2,154,24
34359508,-2884,-188,16712,-242,58,-368
34363027,-2536,1288,15648,-138,199,-77
34366448,-2788,2088,15772,-40,50,-69
34369745,-3752,-616,16404,-78,276,22
34373041,-4244,248,15960,-88,233,-98
34376338,-2376,1452,16464,-207,222,-407
34379895,-3136,1100,15404,-36,-50,39
34383191,-3040,2228,15904,-3,-54,-36
34386488,-3820,-612,16088,-119,112,52
34389894,-3496,392,14876,64,94,-8
34392907,-2416,716,16748,-257,15,-325
34396290,-2384,1288,15856,-244,293,-158
34399847,-3004,2048,15368,7,53,51
34402887,-3812,-1076,16320,-100,308,-110
34406562,-4204,712,15960,18,208,129
34409737,-2724,28,16724,-276,73,-316
34413057,-3124,1108,15052,-135,91,-87
34416416,-3040,2296,16432,86,-257,126
34419800,-3800,-1276,16152,-193,332,-81
34423356,-3128,1124,15024,104,0,60
34426479,-3020,-728,16892,-302,197,-388
34430036,-2252,1484,15452,-338,318,-246
34433593,-2860,1960,15752,1,58,-90
34436716,-3572,-432,16264,-86,156,25
34440037,-4180,284,15972,104,140,238
34443309,-3772,-1020,16820,-270,123,-309
34446952,-2512,1020,15400,-72,15,-88
34450249,-2868,1892,16800,-81,-106,-51
34453719,-3636,-480,16024,0,62,124
34456842,-3456,412,15044,31,189,114
34460052,-2652,360,16784,-210,115,-333
34463570,-2372,1144,15832,-286,342,-225
34467078,-2608,1216,16040,-209,130,-351
34470635,-3164,524,15924,-1,188,69
34473758,-4048,832,15744,50,144,106
34476968,-3044,-136,16584,-104,215,-168
34480525,-3256,420,15564,-135,-33,-103
34483995,-2500,684,16644,-205,46,-251
34487401,-3056,624,15736,-11,-54,158
34490674,-2992,1024,15128,68,87,39
34493797,-3112,-752,16824,-100,269,-194
34497354,-2836,640,15864,-259,317,-154
34500824,-2564,1796,15904,-295,361,-453
34504381,-2752,1140,15688,-48,17,-41
34507712,-3456,1892,15404,-13,11,134
34510974,-4088,-804,15736,-60,106,-14
34514382,-3808,-24,15648,18,84,33
34517393,-2780,1632,16804,-77,-163,-104
34520950,-2876,816,15728,3,-37,39
34523986,-2660,2040,15256,19,79,134
34527196,-4084,-1840,16872,-170,229,-273
34530840,-3484,304,15840,-251,338,-143
34534310,-2784,864,16172,-206,145,-347
34537804,-2856,832,15812,-128,178,-210
34541250,-2688,2660,15568,52,-32,258
34544546,-4200,-1448,16276,12,158,123
34547929,-3852,364,15896,136,-125,171
34551313,-2500,492,16384,-219,139,-321
34554782,-3176,576,15484,-34,-119,-68
34558166,-2260,2084,15784,-40,201,27
34561462,-3992,-1264,16448,0,86,-67
34564733,-3576,412,15800,-51,290,67
34567882,-3056,-200,16092,-345,314,-429
34571439,-2792,944,15784,-2,83,-33
34574562,-3044,2392,15564,-161,117,-12
34578032,-4200,-796,15416,32,68,81
34581155,-3936,-80,16040,21,6,37
34584104,-2556,1536,16688,-102,-64,-128
34587684,-2928,616,15420,1,-29,54
34590697,-2732,1996,15460,-22,117,63
34593994,-4124,-1552,16796,-131,248,-181
34597637,-3668,-40,15884,-237,346,-120
34601107,-2856,708,16144,-208,243,-343
34604577,-2980,648,15812,-159,121,-176
34608082,-2592,2752,15768,-7,-16,138
34611344,-4092,-1264,16056,6,119,141
34614665,-3864,276,15672,184,-114,189
34618023,-2484,488,16200,-297,132,-327
34621493,-3072,576,15548,1,-104,-62
34624703,-2328,2120,15928,-97,158,10
34628000,-4156,-1128,16524,-6,82,-50
34631296,-3160,304,15852,-31,309,126
34634592,-3136,-648,16320,-279,283,-456
34638174,-2900,1160,15752,-110,180,-109
34641706,-2264,2424,16376,-106,-27,26
34645089,-4316,-752,15640,50,147,72
34648299,-3732,144,15996,203,-175,291
34651682,-3040,-980,16084,-339,354,-397
34655239,-2904,968,15524,-3,65,-128
34658449,-2552,1124,16460,-201,4,-148
34661832,-3292,144,15376,3,221,-40
34665003,-3672,224,15944,-113,215,-3
34668252,-2908,284,16232,-250,443,-261
34671722,-3112,860,15540,-158,51,-283
34675105,-2456,2744,16040,-206,31,-159
34678575,-3696,244,14888,13,21,69
34681611,-3592,928,15504,279,-115,249
34684994,-2532,32,16268,-374,208,-404
34688401,-3292,448,15316,18,-84,-141
34691674,-2312,2236,15796,-128,120,34
34695057,-4092,-968,16044,-8,98,-33
34698267,-3284,1300,15468,-26,205,119
34701650,-3616,-1264,16608,-289,288,-358
34705294,-4072,16,15888,-183,352,-322
34708712,-2244,2464,16476,-100,-70,88
34712064,-4256,-796,15620,-22,115,8
34715295,-2680,2408,14976,221,-307,268
34718740,-3520,-1484,16132,-339,447,-348
34722384,-3684,176,15288,-34,-9,-207
34725680,-2124,1256,16232,-208,106,-123
34729237,-2552,1280,15812,-209,259,-171
34732794,-2868,1972,15280,42,105,126
34736090,-3960,-1456,16400,-49,252,98
34739498,-4376,600,16048,18,146,-15
34742683,-2508,500,16680,-292,140,-248
34746153,-3052,752,15076,-105,31,-62
34749450,-2984,2336,16288,164,-223,167
34752920,-3812,-1468,16464,-66,49,152
34756303,-3432,624,14640,113,75,36
34759426,-2424,-56,16636,-282,68,-390
34762857,-2892,1180,15472,-212,341,-152
34766366,-2760,1932,15632,-122,67,-124
34769836,-3508,-508,15940,-21,40,36
34773046,-3892,1364,15948,41,177,190
34776342,-3264,-772,16880,-227,113,-306
34779899,-2936,1012,14860,-64,177,-22
34783282,-2896,1708,16968,-42,-239,-84
34786752,-3356,-328,16136,-54,72,83
34789985,-3020,1368,14816,124,-24,129
34793345,-3112,-1076,16804,-245,217,-378
34796988,-3260,408,15784,-222,309,-74
34800372,-2704,1340,16148,-164,129,-326
34803928,-2540,1192,15740,-134,132,-133
34807485,-3060,2592,15268,102,53,278
34810817,-4416,-1628,16892,51,101,128
34814190,-3760,-16,15988,30,47,90
34817201,-2796,808,16064,-175,24,-299
34820585,-2972,532,15876,-25,-107,-31
34823968,-2552,2164,15604,-77,206,6
34827178,-3892,-1352,16216,-53,143,-154
34830734,-3116,532,15752,-16,264,64
34833944,-2988,60,16292,-351,272,-473
34837355,-2888,912,15864,-2,76,-25
34840450,-3084,2360,14804,82,153,243
34843747,-4212,-1500,16932,130,-53,100
34847217,-3788,-148,15988,-142,198,-34
34850687,-2896,1524,16136,-284,119,-393
34854243,-2588,1112,15820,41,-117,50
34857540,-2784,1968,15632,-185,78,-33
34860923,-3600,-336,15404,35,243,12
34864182,-3800,108,16100,-89,209,0
34867256,-2684,752,16328,-330,372,-460
34870726,-2828,904,15260,-135,52,-211
34874109,-2652,2852,15456,26,83,166
34877319,-4016,-1356,16488,-75,80,-78
34880702,-3548,960,15372,206,-36,262
34883999,-2720,-20,15960,-323,208,-413
34887492,-2712,896,15780,34,-178,-92
34890765,-2540,1952,15688,-194,270,-16
34894235,-3700,-948,15580,105,27,-43
34897532,-3360,172,15944,9,281,135
34900655,-3416,-612,16116,-331,285,-458
34904212,-2852,1108,15536,-55,93,-122
34907595,-2560,1812,16480,-211,20,-86
34911013,-3812,-184,15296,64,108,57
34914212,-3748,380,15888,129,-180,203
34917571,-3388,-1408,16140,-324,379,-346
34921215,-2820,876,15388,-11,-135,-21
34924598,-2344,1104,16468,-219,54,-182
34928068,-2884,584,15212,-33,144,9
34931191,-3672,384,15752,-21,215,87
34934401,-3092,-192,16300,-254,411,-259
34937982,-3184,780,15384,-141,103,-209
34941427,-2704,388,16544,-211,125,-234
34944897,-3324,788,15108,25,-39,-5
34948020,-3380,1564,15392,255,-129,346
34951490,-4176,-1644,16332,-237,296,-114
34955134,-3364,324,15188,84,0,30
34958083,-2352,1504,16212,-253,114,-144
34961640,-2452,1472,15560,-101,148,-107
34965246,-3260,1480,15380,-33,115,-53
34968580,-3540,-684,16276,-94,216,-3
34971877,-4324,380,15944,-90,301,-102
34975260,-2352,1156,16728,-200,98,-287
34978730,-3032,1020,15072,-119,162,-89
34982200,-2648,2532,15612,-67,-189,-96
34985670,-3848,-600,16176,-21,121,139
34989076,-3580,644,15016,-21,118,43
34992263,-3596,-1388,16512,-154,114,-287
34995906,-2684,972,15828,-326,338,-246
34999376,-2652,1256,15972,-239,116,-333
35002933,-2924,624,15748,-33,196,38
35006143,-4092,1224,15700,23,-45,245
35009439,-4172,-1428,16480,-119,233,-116
35013126,-3192,528,15112,99,-46,151
35016293,-2548,340,16476,-167,34,-274
35019676,-3068,832,15588,-60,-48,86
35022886,-3108,1344,15024,-40,28,74
35026095,-3208,-1092,16772,-81,196,-148
35029652,-3188,424,15736,-174,287,-92
35033035,-2632,1400,16124,-352,409,-424
35036592,-2712,912,15732,-94,85,-148
35039913,-3248,2244,15528,-68,56,3
35043012,-4100,-1276,16776,28,25,113
35046308,-3952,-200,15724,35,144,62
35049518,-2696,1012,16192,-118,-113,-248
35053161,-2868,816,15524,-17,-37,25
35056371,-2508,2192,15764,-74,88,21
35059581,-4068,-1408,16476,-53,188,-99
35063153,-3480,416,15664,-85,306,51
35066261,-3016,88,16624,-312,216,-447
35069644,-2716,816,15712,-120,146,-61
35073027,-2396,2492,15976,-88,-23,-15
35076410,-4200,-756,16028,33,151,149
35079707,-3848,-104,15900,147,-113,234
35083177,-2944,-412,16044,-223,232,-375
35086734,-2980,680,15764,-10,-25,-52
35090054,-2372,1468,16204,-195,116,-188
35093587,-3396,-76,15468,33,107,20
35096710,-3632,116,15876,74,102,204
35099919,-3840,-1068,16412,-341,385,-360
35103563,-2912,880,15452,-82,52,-146
35106859,-2792,1064,16320,-307,185,-237
35110416,-3424,616,15332,122,-154,147
35113845,-2748,2308,15572,139,-133,212
35117270,-3856,-1360,16096,-260,208,-259
35120913,-3208,680,15484,51,16,-53
35124036,-2572,372,16892,-303,136,-312
35127506,-2824,1160,15504,-50,123,-55
35130889,-2344,2476,15488,65,92,110
35134099,-4124,-1192,16680,-186,263,-136
35137767,-4048,1296,15504,107,194,188
35141126,-3484,-656,16496,-284,58,-321
35144596,-3096,1040,15180,-92,33,-99
35147892,-2848,1900,16840,-2,-230,13
35151189,-4180,-956,16076,-47,161,73
35154485,-3368,180,15152,41,123,108
35157695,-3204,-968,17140,-259,156,-362
35161252,-2404,1344,15840,-196,242,-177
35164857,-2476,1624,15864,-156,118,-259
35168365,-3468,140,16088,-60,226,105
35171662,-3124,2312,15492,60,51,258
35174872,-4172,-1612,16512,-171,277,-208
35178515,-3140,680,15368,64,-62,83
35181638,-2536,1188,16456,-164,34,-230
35185108,-3408,284,15788,21,-112,188
35188429,-3192,816,15132,0,168,102
35191528,-2740,-368,16668,-141,178,-236
35195084,-2704,844,15596,-251,330,-154
35198554,-3072,112,16364,-324,329,-439
35202024,-2800,904,15676,-44,69,21
35205147,-3668,1632,15420,73,120,232
35208444,-3632,-1092,16540,-65,100,-30
35211917,-3748,64,15944,-30,84,9
35214905,-2800,1740,16716,-64,-146,-98
35218333,-3768,-456,16036,16,-80,74
35221543,-2700,1828,15376,-7,91,68
35224666,-3932,-1560,16796,-145,224,-260
35228310,-2348,1208,15904,-247,316,-149
35231866,-2640,948,16044,-195,245,-329
35235336,-3288,536,15840,-122,72,-140
35238744,-2768,2776,15912,-10,12,185
35242016,-4076,-1340,16036,-108,187,-118
35245660,-4072,312,15992,174,-103,154
35249043,-2496,456,16492,-255,125,-280
35252513,-3044,412,15272,-59,-60,-98
35255809,-2564,2340,15904,-37,150,66
35259106,-4084,-1476,16560,-11,60,53
35262451,-3584,644,15520,-43,293,23
35265612,-3216,-468,16360,-292,267,-376
35269169,-2900,968,15776,-144,205,-235
35272639,-2452,2456,16284,-102,-34,22
35276022,-3916,-684,15472,2,157,56
35279145,-3848,272,15656,192,-109,203
35282528,-2696,-644,16044,-288,200,-307
35286085,-2984,828,15472,28,84,-95
35289237,-2476,2172,15544,-207,-1,-178
35292678,-3352,92,15568,36,204,21
35295714,-3528,508,15576,-137,223,-35
35299098,-2856,36,16272,-179,316,-206
35302481,-3220,504,15776,-187,138,-249
35305951,-2488,2908,15868,-278,46,-260
35309421,-3640,372,15152,31,64,166
35312567,-3776,928,15656,184,-126,190
35315962,-2728,-432,16188,-221,345,-118
35319484,-3296,132,15128,-60,-7,-147
35322780,-2276,1976,16264,-153,116,-50
35326250,-2748,1124,15408,-47,77,-29
35329547,-3400,1268,15444,48,265,131
35332843,-3448,-964,16612,-129,204,-86
35336313,-3808,368,15688,-68,241,-136
35339721,-2404,1808,16524,-185,-11,-117
35343253,-2912,1124,15468,-13,-10,31
35346550,-2956,1896,15424,181,-194,262
35350020,-3160,-1136,16064,-63,156,-3
35353403,-3380,436,15104,14,38,-60
35356526,-2408,916,16588,-246,63,-276
35359909,-2848,688,15340,-182,309,-118
35363428,-2948,1928,15328,39,83,138
35366589,-4036,-1268,16556,-183,369,-165
35370233,-4284,560,16264,4,141,45
35373269,-2800,520,16620,-267,141,-288
35376739,-3360,704,15200,-125,7,-85
35379949,-2988,2280,16180,104,-174,140
35383419,-4000,-1364,16168,-199,232,-95
35386979,-3328,668,15144,100,11,78
35390123,-2868,-228,16688,-342,143,-422
35393655,-2596,1120,15592,-229,231,-236
35397212,-2528,2200,15536,-95,149,-39
35400595,-3788,-712,16156,-40,184,-20
35403978,-3724,1396,15728,100,185,229
35407362,-3600,-940,16576,-255,122,-338
35410918,-3372,332,15540,-22,67,-23
35414151,-2988,1684,16836,-27,-235,-21
35417633,-3692,-620,15916,-40,7,53
35420721,-3508,268,14988,81,30,117
35423844,-3684,-1400,17108,-237,227,-393
35427488,-2416,1332,15708,-222,188,-184
35431044,-2480,1388,15916,-150,118,-248
35434601,-3144,384,15856,-110,173,-165
35438096,-3068,2516,15436,89,-9,299
35441281,-4168,-1532,16420,-209,248,-216
35444924,-4020,-4,15880,55,-67,19
35447961,-2516,1296,16728,-152,46,-194
35451430,-3528,32,15768,-37,-107,-12
35454727,-2320,2116,15696,11,122,64
35457937,-4260,-1748,16568,-105,145,-196
35461580,-2592,980,15808,-137,321,-73
35465012,-2716,480,16324,-285,219,-383
35468434,-3032,900,15648,-114,104,-204
35471904,-2388,2648,15912,-56,25,94
35475113,-4304,-1104,15588,-21,164,-10
35478583,-3816,568,15748,177,-21,192
35481880,-2464,96,16628,-260,67,-303
35485176,-3180,632,15312,-97,82,43
35488324,-2840,1704,15280,-44,-82,-20
35491683,-3984,-784,16200,-1,282,-34
35494979,-3476,120,15804,-217,240,-169
35498449,-2436,1416,15788,-290,325,-376
35502006,-2912,1020,15780,-98,102,-183
35505476,-2988,2572,15660,-130,-45,-108
35509033,-3812,-216,15268,-11,141,100
35512439,-3776,356,15796,189,-220,185
35515799,-2876,-676,16160,-273,247,-266
35519391,-3088,592,15396,-10,-7,-60
35522566,-2108,1560,16652,-185,99,-197
35526036,-3524,96,15828,-12,123,73
35529159,-3632,532,15608,61,198,138
35532368,-2760,52,16316,-226,226,-238
35535752,-3344,824,15764,-132,207,-219
35539246,-2632,2508,16000,-266,74,-279
35542692,-3488,648,15056,68,45,181
35545815,-3628,868,15672,137,-63,182
35549111,-2584,-248,16524,-223,249,-173
35552668,-3376,380,15068,-96,100,-133
35556051,-2328,2084,16244,-44,-32,-1
35559347,-2840,1068,15396,-43,246,-3
35562705,-3432,1244,15144,37,136,145
35565940,-3336,-952,16648,-296,413,-446
35569497,-3680,492,15836,-151,194,-164
35572967,-2444,1824,16436,-131,12,-85
35576351,-3184,1128,15012,-44,61,41
35579560,-3224,1596,15548,223,-272,223
35583030,-2908,-896,16108,-151,294,-31
35586500,-3464,200,14948,31,-54,-82
35589735,-2188,1540,16300,-192,148,-201
35593267,-2352,1456,15672,-113,119,-116
35596824,-3108,1744,15340,49,206,125
35600120,-3732,-1444,16284,-25,169,75
35603503,-3940,376,16312,6,218,-31
35606626,-2596,1040,16504,-310,68,-274
35610096,-3460,492,14960,-87,-85,-85
35613416,-2952,2444,15816,143,-165,182
35616863,-3848,-1556,16252,-25,-17,119
35620368,-3264,428,15136,23,174,-34
35623543,-2624,456,16640,-301,59,-333
35626926,-2880,968,15568,-215,373,-153
35630396,-2760,2088,15500,-62,58,-33
35633692,-3936,-960,16316,-62,313,-11
35637079,-4140,604,15988,26,171,108
35640310,-3008,-88,16616,-225,116,-312
35643755,-3312,712,15044,-120,-2,-52
35647052,-2716,2488,16696,92,-245,81
35650348,-4124,-1440,16212,-180,226,12
35653818,-3404,372,14736,92,42,72
35656855,-2292,1380,16428,-301,215,-432
35660411,-2312,1400,15840,-139,88,-99
35663843,-3124,1564,15152,-119,196,-152
35667351,-3564,-348,15936,23,80,42
35670474,-4044,520,16188,-22,296,-32
35673771,-2688,896,16728,-232,136,-312
35677241,-2980,884,15240,-94,74,-52
35680451,-2912,2504,15796,198,-312,253
35683921,-4000,-736,16092,-23,184,133
35687328,-3464,392,15176,22,53,2
35690253,-2676,188,16328,-256,161,-374
35693723,-2488,1312,15204,-276,285,-242
35697280,-2976,2144,15288,15,79,41
35700403,-3988,-1080,16432,-116,268,-106
35704047,-4100,800,16000,53,155,129
35707256,-2924,-164,16724,-271,142,-330
35710813,-3128,572,15300,-110,-5,-78
35714133,-2920,2224,16824,96,-187,77
35717406,-3784,-1136,16340,-187,219,-73
35720998,-3404,816,14952,123,69,105
35724173,-2812,-644,16648,-279,118,-461
35727729,-3052,528,15752,-211,276,-194
35731199,-2560,1964,15608,-155,139,-160
35734756,-2888,1104,15580,-10,22,-58
35738077,-3388,1768,15644,49,139,228
35741349,-3660,-1028,16704,-228,141,-312
35744993,-3520,36,15660,-13,60,-69
35748116,-2692,1844,16664,-75,-195,-36
35751586,-3620,-572,16012,-36,-1,34
35754795,-2388,2128,15324,28,-31,102
35758092,-4044,-1812,16780,-194,266,-301
35761735,-3660,48,15924,-265,373,-192
35765167,-2516,1068,16148,-155,132,-252
35768675,-3124,940,15832,-159,188,-222
35772145,-3120,2564,15500,139,-68,329
35775529,-3824,-768,15228,11,202,53
35778738,-3752,728,15788,144,-136,160
35782122,-2688,440,16612,-200,145,-298
35785592,-3008,816,15528,-120,-75,-137
35789086,-2396,2128,15492,5,135,136
35792271,-4064,-1512,16376,7,82,39
35795394,-2692,736,15956,-54,319,-20
35798691,-2788,12,16064,-359,307,-433
35802074,-2948,1192,15576,19,32,-2
35805197,-3368,1804,15708,-76,78,122
35808494,-4104,-1184,15576,-34,127,-29
35811967,-4056,172,15980,49,-26,96
35815110,-2688,1436,16784,-115,-62,-155
35818643,-2992,932,15436,34,-70,25
35821801,-2620,1884,15204,19,115,139
35825063,-3944,-1732,16896,-235,277,-316
35828706,-3508,508,15760,-197,289,-135
35832176,-2496,828,15996,-252,390,-327
35835646,-2840,1076,15500,-114,47,-234
35839141,-2648,2780,15720,-146,-25,-34
35842586,-3604,-452,15384,-36,115,19
35845883,-3776,628,15488,196,-111,210
35849266,-2424,588,16156,-311,339,-293
35852736,-2716,1064,15408,-9,-150,-157
35856206,-2512,2132,15348,-201,107,-176
35859763,-3040,444,15388,37,58,56
35862848,-3868,568,15948,-53,330,41
35866009,-2880,-268,16384,-230,263,-181
35869566,-3348,696,15388,-154,240,-291
35873035,-2588,2660,16488,-211,-8,-220
35876506,-3328,384,15192,-31,90,48
35879629,-3300,1636,14840,271,-212,257
35883099,-2728,-720,16144,-168,137,-102
35886655,-3088,580,15220,-50,10,-145
35889976,-2500,1676,15716,-278,17,-385
35893422,-2280,1360,15896,-43,167,-26
35896805,-3484,1200,15428,-5,180,80
35900015,-3444,-1088,16132,-30,281,-11
35903485,-3932,136,15996,-97,155,-171
35906868,-2428,1772,16800,-226,132,-292
35910425,-2980,668,15176,-114,8,-23
35913658,-2984,2448,15308,248,-266,249
35917105,-4096,-956,16328,-85,151,83
35920401,-3276,332,15252,31,30,-51
35923559,-2388,1016,16252,-292,121,-260
35927081,-2228,1424,15924,-161,174,-145
35930638,-2904,1880,15360,-26,249,73
35933934,-3832,-1236,16268,-16,61,61
35937234,-4432,268,16072,12,305,20
35940378,-2676,756,16632,-229,-12,-237
35943823,-3648,408,15148,-71,40,-15
35947033,-2916,2552,16348,128,-253,171
35950503,-4128,-1648,16560,-199,335,-140
35954147,-3276,712,15032,13,108,19
35957270,-2716,-140,16388,-250,97,-412
35960740,-2384,1396,15392,-295,407,-250
35964346,-2752,2004,15516,-20,37,-22
35967593,-3712,-828,15984,-113,270,-70
35971063,-3940,1268,15936,42,111,189
35974360,-3356,-756,16796,-233,174,-313
35977916,-3424,332,15584,-123,-12,-90
35981300,-2636,2252,16224,18,-67,61
35984509,-4292,-1156,16412,-3,2,113
35987744,-3220,428,15216,-47,232,56
35990929,-3368,-1100,16588,-212,70,-365
35994485,-2124,1340,16060,-202,289,-165
35998042,-2524,1872,15784,-132,194,-163
36001599,-3520,-224,15952,-13,-9,-74
36004896,-3312,2260,15508,95,128,301
36008192,-3664,-1280,16632,-228,143,-336
36011839,-3924,24,15824,104,-31,91
36014982,-2380,1592,16360,-191,-6,-186
36018429,-3692,-132,16100,93,-36,195
36021725,-2468,1836,15036,-78,268,61
36025057,-4088,-1668,16428,-77,134,-249
36028578,-2268,1080,16208,-233,408,-146
36032135,-2584,1020,15956,-272,227,-358
36035692,-3024,1172,15664,-70,106,-193
36039186,-2740,2716,15960,8,-87,190
36042372,-3968,-1296,15928,-19,219,115
36045842,-4136,104,15360,168,-175,152
36049225,-2148,740,16992,-196,72,-300
36052608,-2964,844,15044,-86,44,-44
36055818,-2424,2076,15656,51,-31,115
36059114,-4456,-1700,16836,-119,233,-141
36062860,-3660,664,15936,-49,196,-12
36066054,-2912,-264,16268,-370,391,-450
36069611,-3308,612,15660,-125,140,-286
36073081,-2776,2688,16504,-5,0,156
36076204,-4288,-1128,15848,-96,183,-16
36079674,-3684,1024,15136,233,-118,186
36083144,-2512,-208,16096,-298,170,-393
36086701,-3208,552,15328,-20,-28,-78
36090022,-2232,1776,16016,-202,131,-125
36093554,-2444,1432,15292,-27,52,-12
36096850,-3648,960,15652,-35,266,102
36100147,-3380,-772,16444,-316,272,-371
36103704,-3936,204,15720,-86,295,-173
36107087,-2584,1964,16672,-139,-106,-91
36110644,-3136,1052,15108,-33,77,56
36113877,-3304,1808,15496,231,-315,253
36117324,-2964,-960,16544,-109,232,12
36120707,-3500,144,15012,-49,95,-72
36123916,-2116,1412,16264,-164,77,-240
36127426,-2496,1268,15696,-128,208,-82
36130857,-3112,1872,15384,-30,155,45
36134153,-4064,-1416,16276,21,182,30
36137474,-4136,248,16288,-34,184,-18
36140746,-2520,1052,16672,-211,98,-278
36144216,-3508,644,15168,-112,-23,-4
36147513,-3024,2124,15876,193,-191,208
36150983,-3648,-1128,16132,-212,199,-181
36154626,-3700,452,15164,135,44,105
36157836,-2544,-52,16504,-332,134,-452
36161306,-2336,1132,15812,-246,204,-289
36164911,-2884,2136,15624,-34,151,40
36168159,-4100,-1064,16388,-10,96,21
36171456,-4064,864,15708,63,203,168
36174665,-2896,80,16692,-301,53,-378
36177962,-3096,968,15184,-91,91,-73
36181172,-2880,2180,16548,82,-274,90
36184468,-3960,-1188,16292,-127,309,-22
36188049,-3488,188,15156,90,1,71
36190974,-2288,1428,16380,-303,222,-434
36194531,-2304,1408,15592,-116,105,-73
36198001,-2976,1736,15232,-84,81,-69
36201298,-3732,-488,16072,-75,206,41
36204594,-4300,204,16208,10,194,-6
36207717,-2472,1180,16736,-247,37,-260
36211187,-2836,1048,15036,-80,-43,-65
36214594,-2984,2352,15568,157,-189,242
36218040,-3888,-596,16180,-50,62,74
36221250,-3292,528,15076,65,98,-23
36224373,-2540,408,16428,-309,99,-340
36227791,-2664,988,15452,-190,270,-203
36231226,-2780,2336,15300,-28,61,75
36234436,-4016,-1160,16276,-75,318,-66
36237931,-3768,244,15828,42,150,109
36241116,-2940,92,16644,-252,82,-356
36244412,-3088,848,15092,-10,-35,55
36247622,-3224,1768,14912,204,-191,221
36251092,-4308,-1600,16572,-127,209,-33
36254649,-3192,504,15264,20,75,42
36257685,-2348,1480,16148,-296,218,-425
36261242,-2272,1500,15544,-106,100,-113
36264847,-3116,1716,15356,-116,148,-179
36268355,-3376,56,16088,-61,165,94
36271478,-4372,-464,16112,-53,315,-172
36274948,-3152,-440,16520,-305,151,-385
36278505,-2980,612,15252,-57,-20,13
36281715,-2840,2536,15488,-91,-38,-108
36285185,-3780,-460,16332,41,-45,192
36288506,-3488,188,15424,-28,153,-88
36291778,-3716,-1452,16556,-239,108,-390
36295421,-2280,1148,15888,-201,271,-174
36298978,-2656,1108,16164,-264,167,-332
36302535,-3052,628,15536,-60,102,-152
36305918,-3176,2416,15760,57,-27,241
36309215,-3648,-1160,16252,-145,237,-195
36312881,-4044,-56,15604,88,-8,79
36315894,-2320,1324,16728,-151,-63,-167
36319451,-3432,168,15808,-35,-37,-30
36322748,-2444,2184,15376,2,15,121
36325871,-4312,-1932,16540,-105,274,-227
36329549,-2644,960,15968,-171,259,-102
36332984,-2684,516,16340,-276,323,-377
36336454,-3120,808,15260,-149,111,-243
36339949,-2976,2620,16316,41,-52,180
36343221,-3920,-1144,15952,-106,192,-53
36346777,-3952,340,15528,228,-126,181
36350161,-2260,364,16328,-303,128,-315
36353630,-2948,560,15448,-38,-123,-76
36357014,-2304,2132,15872,-138,146,33
36360397,-4300,-1336,16284,47,-55,73
36363742,-3544,860,15824,-80,334,27
36366903,-3100,-740,16344,-301,257,-391
36370460,-2756,1268,15568,-126,241,-241
36374017,-2440,2680,16372,-50,-95,79
36377313,-4112,-996,15628,49,0,81
36380350,-4116,84,15796,197,-226,223
36383646,-2992,-936,16264,-315,341,-384
36387206,-2644,968,15616,-60,35,-201
36390524,-2500,1616,15916,-195,96,-173
36393969,-3384,-60,15648,54,94,29
36397006,-3800,288,15984,-144,307,-67
36400389,-3556,-1144,16336,-313,358,-335
36404032,-2848,820,15588,-120,77,-223
36407416,-2500,1760,16660,-189,111,-103
36410972,-3832,-104,15252,4,22,80
36414032,-3756,760,15428,223,-55,223
36417305,-2344,244,16172,-304,282,-277
36420775,-3008,680,15292,2,-34,-105
36423985,-2512,1992,15568,-110,141,37
36427368,-2864,736,15516,55,60,35
36430439,-3772,760,15996,-86,277,62
36433614,-3108,-536,16196,-306,295,-400
36437174,-2860,1168,15320,-140,233,-251
36440752,-2656,2524,16644,-67,-98,74
36444024,-4072,-908,15656,-21,43,65
36447234,-3228,1488,14956,212,-259,234
36450704,-2864,-648,16300,-365,387,-397
36454261,-3100,480,15276,-58,-80,-121
36457644,-2336,1824,15948,-139,144,-111
36461200,-2404,1312,15780,-43,89,-31
36464546,-3428,1340,15500,11,263,129
36467794,-3516,-1116,16392,-322,308,-345
36471437,-4140,244,15924,-67,192,-112
36474820,-2852,1420,16988,-219,47,-175
36478290,-3052,1084,15008,-91,-7,-31
36481587,-3108,2032,15328,244,-238,273
36485057,-3360,-1196,16424,-104,168,44
36488551,-3528,200,15056,35,88,-29
36491650,-2160,1132,16284,-261,71,-305
36495120,-2228,1484,15756,-102,142,-78
36498590,-3028,1960,15288,-66,169,55
36501886,-3912,-1340,16224,3,121,30
36505096,-4280,508,16020,10,229,30
36508219,-2748,720,16844,-192,16,-279
36511602,-3380,680,15100,-83,118,62
36514835,-3584,1180,15032,187,-285,218
36518282,-3996,-1444,16672,-255,324,-171
36521926,-3220,288,15300,24,19,21
36524962,-2724,-184,16144,-290,219,-444
36528519,-2316,1496,15368,-47,31,3
36531677,-3748,1128,15800,-13,331,67
36534938,-3696,-708,16056,-150,189,-97
36538432,-3800,404,15680,-74,280,-131
36541791,-2532,1824,16928,-251,91,-325
36545261,-2924,992,15036,-70,93,1
36548298,-3380,1892,15204,243,-313,236
36551768,-3084,-996,16600,-107,189,7
36555064,-3472,344,15112,-40,67,-41
36558274,-2152,1260,15892,-210,66,-251
36561747,-3120,508,15428,-130,215,-75
36565188,-3296,1668,15468,-4,150,83
36568337,-3688,-1216,16376,-247,344,-226
