Time,Accel_X,Accel_Y,Accel_Z,Gyro_X,Gyro_Y,Gyro_Z
330189624,-2496,-452,14804,-66,216,164
330193119,-3164,-364,15292,-6,256,275
330196478,-2312,-492,14668,23,114,260
330199861,-2756,-452,14964,-50,243,149
330203331,-2768,-404,14812,13,109,305
330206714,-2496,-504,14764,-82,304,101
330210184,-3048,-364,15172,51,195,305
330213567,-2400,-480,14788,17,226,168
330216954,-2900,-488,14860,22,265,234
330220358,-2668,-400,14940,-110,206,154
330223891,-2712,-484,15024,-17,211,177
330227361,-2612,-524,15008,-95,178,242
330230831,-2576,-388,14924,-154,182,108
330234387,-2812,-352,15004,10,256,250
330237771,-2544,-552,14800,-107,239,130
330241327,-2768,-368,15040,108,198,302
330244844,-2328,-508,14668,-175,429,-54
330248354,-3132,-368,15300,188,17,450
330251737,-2024,-580,14416,-216,535,-131
330255381,-3344,-408,15676,29,16,373
330258677,-2060,-516,14400,-135,399,-1
330262151,-3092,-468,15396,-60,122,261
330265652,-2392,-552,14736,-93,247,96
330269025,-3092,-400,15236,-90,252,167
330272471,-2452,-556,14784,74,178,271
330275854,-2968,-376,15144,-42,340,166
330279324,-2604,-464,14968,78,130,253
330282707,-2656,-424,14876,-57,306,103
330286177,-2884,-592,15032,20,163,234
330289560,-2504,-376,14672,-132,268,71
330293055,-2916,-472,15192,-15,221,297
330296500,-2500,-344,14700,-80,141,210
330299970,-2844,-480,15232,17,292,180
330303354,-2596,-472,14892,3,97,294
330306563,-2664,-476,14912,24,224,161
330309947,-2556,-432,14796,-47,267,208
330313417,-2820,-332,15000,-18,175,184
330316890,-2436,-552,14768,-115,398,13
330320381,-3068,-248,15096,-37,133,223
330323827,-2500,-392,14536,-44,301,123
330327297,-2996,-524,15332,-34,172,241
330330767,-2392,-480,14668,-91,160,173
330334237,-2772,-424,15060,-174,353,75
330337707,-2388,-520,14960,2,149,204
330341003,-2840,-432,15028,-70,403,88
330344410,-2684,-624,15056,59,127,307
330347770,-2784,-468,14876,-4,218,187
330351153,-2600,-452,14988,15,253,180
330354536,-2764,-484,15192,-38,172,197
330358006,-2508,-440,14772,-60,242,259
330361476,-2768,-424,15012,-92,210,140
330364946,-2660,-452,14972,-92,232,201
330368483,-2864,-408,15064,-58,231,202
330371886,-2532,-548,14772,-88,244,98
330375269,-2984,-240,15200,16,252,236
330378653,-2596,-556,14912,-20,227,102
330382123,-2904,-384,15108,84,198,289
330385506,-2308,-504,14548,-173,338,54
330388976,-3072,-324,15112,-5,155,251
330392384,-2512,-516,14876,-60,346,131
330395829,-2748,-512,15124,-62,152,209
330399299,-2584,-448,14912,-26,285,132
330402769,-2828,-468,15004,-76,173,233
330406239,-2576,-592,14804,12,204,196
330409622,-2504,-516,14848,-94,283,180
330413092,-2880,-384,15084,-45,223,139
330416562,-2580,-404,14844,27,276,217
330419970,-2608,-376,14920,-84,232,85
330423329,-2664,-440,15200,-36,207,229
330426799,-2696,-432,14788,-175,247,136
330430356,-2552,-496,15076,-33,142,211
330433826,-2800,-452,14984,-75,278,212
330437296,-2568,-508,15032,-47,242,194
330440766,-2780,-520,15104,-17,240,158
330444260,-2648,-460,14868,-65,318,195
330447706,-2836,-348,14960,-46,270,66
330451089,-2904,-412,15068,64,208,328
330454472,-2604,-452,14804,-123,318,-2
330457942,-2888,-304,14992,22,219,259
330461325,-2456,-524,14724,-138,272,109
330464882,-2864,-352,15172,-25,201,263
330468403,-2480,-464,14860,-89,328,96
330471770,-3008,-392,15284,-28,146,234
330475205,-2368,-624,14636,-33,374,75
330478589,-3096,-412,15292,-64,206,148
330482059,-2532,-604,14928,83,210,238
330485442,-2736,-452,14900,-4,225,283
330488825,-2532,-544,14804,-111,299,44
330492320,-2964,-484,15084,42,179,354
330495678,-2592,-416,14816,-90,224,107
330499148,-2796,-452,14988,-13,209,228
330502618,-2684,-280,14816,-119,216,162
330506175,-2708,-544,15040,-6,163,202
330509558,-2620,-392,14752,-76,322,134
330513028,-2704,-456,15168,46,136,233
330516412,-2856,-420,14976,-7,330,115
330519819,-2624,-556,15044,58,163,243
330523178,-2540,-324,14700,-142,229,134
330526735,-3180,-308,15196,-38,283,190
330530205,-2444,-640,14852,-95,199,145
330533675,-2976,-364,15112,-72,226,239
330537145,-2412,-584,14832,-96,290,83
330540528,-2888,-492,15296,23,197,255
330543936,-2568,-388,14748,-13,251,173
330547381,-3044,-404,15204,8,190,198
330550678,-2356,-632,14656,16,250,220
330554061,-2768,-424,14820,-57,154,205
330557531,-2364,-608,14744,-47,301,190
330561001,-3024,-276,15128,-32,139,352
330564471,-2308,-544,14672,33,198,197
330567914,-2868,-344,15012,-97,307,165
330571328,-2628,-464,14988,-50,136,215
330574829,-2680,-536,15016,-76,331,127
330578264,-2544,-560,14916,-5,170,231
330581648,-2764,-376,14888,7,298,146
330584944,-2640,-384,14860,22,273,195
330588327,-2596,-464,14856,-83,214,118
330591801,-2796,-344,14844,-26,281,203
330595292,-2636,-444,14984,-106,212,185
330598824,-2704,-408,14848,-10,215,208
330602294,-2772,-452,15096,-126,320,99
330605764,-2912,-388,15164,15,102,338
330609147,-2828,-392,15056,-56,375,107
330612617,-2708,-516,15052,81,84,296
330615914,-2580,-392,14708,-34,255,174
330619408,-2564,-508,14872,2,256,135
330622680,-2732,-400,14972,-124,313,75
330626150,-2836,-272,14992,-35,236,274
330629620,-2484,-504,14968,-49,171,216
330633090,-2764,-324,14816,-59,217,257
330636560,-2576,-496,14984,-72,235,112
330640030,-2708,-476,14908,35,158,237
330643438,-2656,-512,15000,-107,314,111
330646970,-2792,-436,15052,16,163,226
330650354,-2816,-580,14996,-29,361,130
330653824,-2676,-456,14872,4,160,215
330657120,-2668,-528,15040,-27,295,192
330660590,-2884,-364,14872,-49,134,231
330664060,-2768,-524,15188,-96,266,48
330667490,-2588,-360,15064,-58,248,237
330670913,-2716,-444,14888,-40,172,175
330674387,-2460,-560,14916,0,256,240
330677715,-2760,-464,15036,-86,254,146
330681150,-2504,-452,14956,112,191,265
330684620,-2784,-636,15088,-183,324,14
330688090,-2444,-472,14680,104,1,396
330691386,-2624,-424,14992,-224,465,-38
330694968,-2696,-472,15032,31,90,316
330698240,-2540,-552,15024,-117,340,90
330701710,-2788,-400,14928,-105,184,227
330705266,-2764,-452,15032,-17,223,168
330708736,-2504,-524,14864,-15,340,155
330712206,-2828,-448,14912,1,146,213
330715503,-2512,-516,14816,-35,369,89
330718911,-2632,-524,15172,11,135,221
330722269,-2712,-432,15016,-27,262,181
330725739,-2656,-516,14852,-108,280,164
330729296,-2732,-588,15024,-122,227,163
330732853,-2768,-400,15032,42,249,240
330736236,-2568,-468,14952,-99,200,150
330739706,-2852,-372,14984,-7,159,262
330743114,-2708,-484,14932,-48,259,158
330746559,-2524,-532,14992,-56,218,108
330750029,-2936,-368,15348,2,273,188
330753326,-2668,-412,14796,124,87,315
330756709,-2560,-492,14820,-89,398,8
330760006,-3004,-328,14984,-23,90,268
330763389,-2288,-580,14796,-53,337,111
330766862,-2808,-432,15152,-44,139,304
330770376,-2396,-476,14724,-94,269,89
330773712,-2704,-532,15172,-16,253,254
330777182,-2712,-416,14836,-16,172,168
330780687,-2632,-572,15020,3,286,142
330783949,-2940,-384,14996,17,169,254
330787332,-2336,-496,14660,-50,290,136
330790802,-2792,-384,15280,17,258,245
330794210,-2396,-376,14724,-127,212,153
330797742,-2824,-488,15096,2,206,294
330801038,-2544,-420,14820,-21,141,237
330804508,-2824,-400,15020,-84,195,159
330807978,-2588,-524,14852,-56,226,256
330811448,-2760,-548,15052,-52,208,140
330814918,-2668,-588,15088,57,280,205
330818326,-2864,-372,15036,31,143,255
330821685,-2464,-488,14728,-45,320,57
330825068,-2940,-400,15184,-124,201,145
330828625,-2620,-444,15072,-83,211,144
330832095,-2812,-460,15084,-48,216,262
330835565,-2444,-404,14852,-89,197,151
330839035,-2924,-508,15076,-41,293,212
330842530,-2460,-424,14860,-31,181,225
330845975,-2776,-368,14872,-21,212,217
330849445,-2548,-492,14996,-26,304,136
330852915,-2888,-372,15032,-47,204,163
330856385,-2520,-548,14844,-82,326,93
330859768,-2876,-372,14948,-46,134,247
330863238,-2700,-424,14772,89,225,275
330866621,-2800,-456,15092,-132,300,115
330870225,-2628,-428,14924,9,126,271
330873475,-2584,-480,14860,-136,350,137
330877031,-2892,-520,15228,45,110,260
330880418,-2560,-520,14744,17,244,146
330883833,-2908,-408,15052,-44,253,159
330887268,-2644,-512,15084,76,143,249
330890651,-2584,-328,14684,-183,364,63
330894146,-2812,-384,15216,-16,132,220
330897591,-2700,-372,14808,-24,246,201
330901061,-2576,-496,14900,-83,202,174
330904531,-2764,-480,14968,-31,213,198
330908001,-2564,-492,14792,-63,189,217
330911471,-2876,-468,15124,-28,267,71
330914854,-2508,-508,14936,36,192,348
330918262,-2700,-428,15084,-40,243,111
330921708,-2528,-444,14904,103,218,258
330925178,-2708,-396,14888,-110,308,142
330928734,-2664,-452,14812,-84,261,117
330932204,-2864,-432,15332,73,165,383
330935588,-2548,-384,14796,-130,225,91
330939058,-2840,-468,15092,-43,277,193
330942552,-2480,-480,14896,-85,206,155
330945998,-2792,-384,14956,-32,232,149
330949468,-2488,-548,14944,-3,316,161
330952851,-2752,-476,15176,16,186,193
330956234,-2452,-476,14808,-64,384,62
330959617,-2736,-524,15008,-12,103,238
330963087,-2616,-364,14608,-133,276,110
330966644,-2800,-408,15072,-9,112,327
330970075,-2588,-472,14808,-125,255,83
330973497,-2896,-352,15144,24,178,337
330976881,-2416,-520,14684,-121,217,67
330980351,-3052,-432,15028,106,146,336
330983859,-2200,-496,14676,-78,286,90
330987204,-3168,-444,15344,96,113,312
330990587,-2104,-480,14580,-92,379,70
330993995,-3072,-384,15196,-49,96,277
330997354,-2460,-560,14796,-31,276,180
331000824,-2824,-304,15016,-3,135,223
331004207,-2836,-548,14936,-64,276,126
331007677,-2756,-528,15028,-56,149,275
331011147,-2584,-360,14860,-121,244,129
331014704,-2704,-412,14960,13,269,223
331018111,-2600,-456,14856,-39,225,133
331021557,-2832,-328,15012,63,250,262
331024940,-2500,-500,14924,-75,232,146
331028410,-2556,-544,14828,-30,233,144
331031880,-2832,-284,14916,-124,181,227
331035437,-2600,-320,14812,-78,206,154
331038907,-2684,-504,14880,-98,268,132
331042401,-2992,-464,15008,-17,181,229
331045847,-2572,-544,14928,35,203,240
331049230,-2644,-448,15080,-14,296,162
331052700,-2756,-480,14992,-5,173,195
331056083,-2512,-540,14860,31,321,151
331059467,-2640,-460,15020,-80,243,118
331062937,-2740,-348,14984,1,175,251
331066233,-2676,-444,14980,-116,266,130
331069891,-2656,-448,14832,-99,192,134
331073260,-3072,-348,15376,-92,311,135
331076730,-2388,-528,14936,37,80,358
331080026,-2972,-356,15184,-77,329,95
331083413,-2648,-476,15068,124,61,372
331086832,-2536,-584,14720,-27,277,121
331090263,-2576,-380,14832,-4,212,173
331093671,-2388,-412,14592,-133,286,68
331097116,-3200,-372,15164,72,204,346
331100499,-2284,-560,14632,-112,236,87
331103969,-2996,-432,15336,37,124,387
331107353,-2320,-384,14692,-93,220,105
331110823,-3020,-280,14992,-58,131,284
331114293,-2520,-384,14708,22,278,158
331117700,-2616,-472,14740,-39,182,189
331121146,-2884,-400,15132,83,278,255
331124529,-2480,-504,14904,-33,163,171
331127999,-2996,-440,15252,17,201,232
331131382,-2456,-496,14648,-112,240,172
331134939,-2828,-460,15092,-52,172,218
331138409,-2580,-412,14924,-73,280,167
331141883,-2780,-308,15084,-93,147,181
331145398,-2676,-420,15032,-8,240,221
331148732,-2588,-448,14936,-78,319,154
331152202,-2756,-436,14860,74,163,229
331155586,-2592,-556,14980,-13,266,181
331159056,-2412,-452,14668,-117,180,135
331162612,-2920,-352,15168,-56,255,178
331166082,-2392,-524,14700,-13,101,316
331169576,-2836,-416,15052,-88,176,130
331173022,-2376,-576,14768,19,192,330
331176406,-2772,-464,15012,-95,231,94
331179789,-2616,-560,15064,21,252,198
331183172,-2736,-472,14912,-31,204,176
331186646,-2700,-512,15132,72,162,229
331190060,-2576,-512,14964,-61,306,125
331193520,-2704,-408,14956,-44,149,180
331196965,-2824,-360,15116,-88,347,130
331200435,-2568,-584,15148,-50,130,243
331203905,-2700,-360,14972,-79,203,195
331207375,-2784,-388,15104,-69,229,159
331210845,-2592,-516,14952,-43,156,194
331214315,-2780,-444,15028,-75,352,116
331217810,-2708,-404,15080,57,150,209
331221169,-2532,-432,15016,-22,341,156
331224639,-2836,-456,14976,11,160,217
331228022,-2676,-464,14872,-92,319,50
331231405,-2732,-284,15032,-83,231,220
331234875,-2704,-440,14976,-36,176,224
331238345,-2720,-432,14996,-64,237,251
331241819,-2640,-540,15132,-91,194,120
331245334,-2732,-444,14924,-41,251,231
331248755,-2692,-472,15092,-31,264,115
331252225,-2604,-508,15004,22,223,211
331255608,-2664,-372,14884,-16,273,243
331259078,-2716,-476,14852,38,164,196
331262462,-2748,-440,14876,-75,280,156
331265932,-2864,-388,15040,-130,248,120
331269512,-2692,-504,15000,-23,160,217
331272958,-2684,-536,15080,-121,230,169
331276515,-2708,-404,14828,-54,155,185
331279985,-2720,-364,15032,-92,358,88
331283368,-2840,-484,15244,72,106,325
331286752,-2604,-488,14892,-66,370,42
331290175,-2968,-536,15320,120,102,333
331293629,-2352,-504,14852,-168,290,20
331297075,-2960,-240,14996,-50,260,177
331300545,-2676,-452,14876,-79,157,219
331304015,-2768,-384,15016,-8,274,229
331307398,-2704,-536,14916,-120,267,141
331310955,-2748,-468,15004,-57,239,116
331314425,-2692,-596,15268,34,255,258
331317833,-2556,-464,14900,-8,172,190
331321191,-2800,-424,15020,-28,269,206
331324661,-2804,-508,15144,0,254,91
331327871,-2544,-340,14704,57,132,354
331331254,-2568,-492,14992,-103,362,38
331334724,-2652,-548,14952,-15,152,289
331338194,-2676,-556,14892,-126,289,103
331341755,-2604,-460,14912,-6,68,313
331345096,-2524,-436,14672,-102,373,74
331348518,-2800,-572,15228,-18,160,249
331351988,-2788,-452,14992,32,233,171
331355371,-2504,-420,14772,-22,333,137
331358841,-2852,-576,15020,9,178,193
331362137,-2672,-400,14780,-42,322,177
331365607,-2908,-300,14844,-97,185,185
331369101,-2600,-512,14932,-30,284,153
331372547,-2696,-564,14876,-97,208,239
331376017,-2576,-384,14868,-35,222,164
331379487,-2684,-540,15004,-41,254,229
331382957,-2656,-500,14976,-45,218,160
331386427,-2664,-544,14824,29,221,208
331389814,-2680,-416,14840,-15,220,225
331393324,-2588,-452,14992,-57,233,100
331396751,-2860,-440,15132,9,287,208
331400047,-2580,-428,14788,-103,231,131
331403604,-2580,-520,14876,42,191,309
331406987,-2776,-404,14996,-173,302,22
331410457,-2524,-436,14696,26,110,323
331413840,-2740,-424,14748,-157,362,52
331417335,-2824,-532,15016,76,-1,373
331420607,-2272,-504,14564,-177,427,36
331424077,-3404,-400,15476,178,34,449
331427460,-2088,-552,14332,-54,356,10
331430843,-3364,-276,15568,-90,193,194
331434313,-2172,-640,14480,-107,309,27
331437783,-3212,-364,15412,-130,231,216
331441340,-2216,-424,14732,-65,176,209
331444859,-2756,-428,15136,-102,338,97
331448280,-2536,-568,14800,-7,216,229
331451663,-2820,-380,15000,-113,260,115
331455220,-2548,-516,14940,-5,307,194
331458603,-3136,-384,15020,-42,232,105
331462073,-2476,-612,14916,54,235,194
331465457,-2988,-300,15176,-153,323,53
331468951,-2516,-604,14936,36,160,247
331472310,-2992,-528,15156,-156,402,33
331475780,-2592,-440,14900,34,42,370
331479076,-2592,-472,14752,-159,364,45
331482546,-2628,-548,14940,37,47,311
331485843,-2728,-620,14948,-15,332,98
331489226,-2664,-528,14952,-44,263,159
331492719,-2828,-432,14960,105,97,291
331496114,-2416,-472,14584,-101,369,105
331499636,-2852,-460,15096,29,192,231
331503019,-2640,-548,14872,-68,301,94
331506403,-2936,-380,15152,-26,152,283
331509873,-2320,-560,14800,-127,274,61
331513343,-2908,-420,15024,-47,174,295
331516816,-2440,-536,14720,-61,220,151
331520307,-3020,-364,15188,10,280,260
331523666,-2500,-432,14944,9,142,238
331526962,-2748,-460,14988,15,277,181
331530346,-2520,-476,14780,-26,166,215
331533816,-2592,-376,14768,-162,296,57
331537286,-2780,-608,15204,11,179,303
331540669,-2684,-360,14852,-41,247,111
331544163,-2716,-476,15076,-14,295,181
331547609,-2732,-444,14936,-37,150,205
331551079,-2688,-536,14784,-52,212,186
331554549,-2700,-432,14832,-78,250,138
331558019,-2836,-468,15092,65,136,263
331561402,-2540,-420,14784,-24,319,191
331564872,-2776,-416,15036,-83,196,182
331568403,-2732,-376,14832,-81,343,80
331571725,-2860,-484,15224,11,129,353
331575109,-2412,-468,14560,-83,264,112
331578579,-3012,-504,15372,-84,258,178
331582049,-2392,-380,14800,-77,206,114
331585519,-2936,-532,15528,-10,294,215
331588989,-2360,-492,14768,-84,226,145
331592482,-3144,-360,15168,10,266,162
331595845,-2584,-596,15000,92,243,261
331599260,-2540,-420,14800,-251,358,-83
331602782,-3180,-340,15328,85,173,346
331606165,-2268,-560,14616,-68,217,88
331609548,-2976,-448,15084,-9,298,275
331612932,-2452,-468,14796,-138,268,101
331616488,-2980,-484,15236,-27,189,218
331619983,-2512,-404,14832,-21,293,181
331623428,-2828,-444,15056,-4,196,226
331626812,-2604,-424,14728,-30,366,89
331630195,-2848,-484,15124,14,159,220
331633578,-2552,-488,14840,-18,269,160
331637048,-2980,-304,15108,-83,204,207
331640518,-2544,-568,14820,21,240,204
331643926,-2816,-392,15000,-93,283,225
331647371,-2616,-416,14784,-60,181,147
331650841,-2644,-584,15124,-40,298,165
331654311,-2900,-448,15088,-28,132,219
331657781,-2512,-488,14840,7,280,118
331661078,-2972,-352,15032,-2,207,225
331664461,-2260,-436,14692,65,239,206
331667893,-3088,-416,14992,-69,282,153
331671314,-2516,-556,14808,-51,122,264
331674784,-3068,-412,15180,-55,246,195
331678254,-2472,-492,14860,12,118,254
331681638,-2616,-596,14940,-78,249,98
331685021,-2700,-464,15012,-12,183,290
331688491,-2880,-456,15048,-35,148,204
331691964,-2476,-484,14828,11,340,161
331695367,-3028,-392,15104,-87,200,148
331698818,-2240,-512,14520,16,221,172
331702232,-3008,-416,15068,-227,385,-18
331705754,-2436,-604,14948,76,100,298
331709137,-2788,-400,14924,-143,323,101
331712694,-2616,-496,14920,-59,159,216
331716164,-2616,-520,14912,-84,254,193
331719659,-2856,-476,15124,-11,211,222
331723104,-2360,-404,14632,-65,259,125
331726574,-3148,-340,15244,81,215,310
331729957,-2184,-584,14632,-2,172,164
331733341,-2884,-368,14984,-81,411,26
331736724,-2512,-428,14860,63,137,281
331740107,-2524,-524,14932,-124,334,122
331743688,-2712,-348,14712,-30,195,310
331747134,-2556,-504,14904,-112,218,96
331750604,-2904,-500,15360,45,240,257
331753987,-2632,-572,14880,11,152,233
331757370,-2576,-492,14756,-39,254,123
331760840,-2724,-512,15012,13,208,249
331764224,-2616,-392,14876,-4,246,168
331767655,-2752,-520,15188,-64,318,138
331771077,-2776,-448,14976,-11,132,239
331774547,-2824,-464,15096,-97,287,105
331778017,-2604,-580,14996,-18,166,280
331781487,-2584,-404,14868,-100,214,107
331785044,-2632,-436,15012,-4,178,345
331788427,-2580,-492,14880,-122,240,95
331791900,-2724,-452,15044,39,253,254
331795303,-2656,-296,14712,-80,269,152
331798750,-2868,-480,15136,76,151,255
331802137,-2504,-476,14828,-41,274,184
331805638,-2736,-388,14964,-178,240,76
331809073,-2948,-484,15216,93,225,294
331812457,-2448,-568,14908,-182,272,42
331815927,-2984,-432,15236,51,189,310
331819334,-2320,-484,14852,-140,332,98
331822780,-3080,-480,15308,70,156,225
331826163,-2404,-508,14768,-56,286,174
331829633,-2920,-424,15188,16,141,213
331833016,-2500,-512,14712,21,299,190
331836400,-2636,-460,15020,-96,203,145
331839870,-2748,-496,14892,3,225,211
331843191,-2824,-504,14988,12,227,260
331846549,-2428,-560,14820,-98,193,166
331850019,-2856,-400,15192,-67,268,196
331853489,-2448,-372,14848,-108,181,124
331857046,-2788,-536,14896,-27,339,141
331860516,-2376,-604,14872,-6,176,214
331863899,-2704,-432,15024,-14,284,85
331867331,-2684,-396,14924,-92,295,167
331870753,-2852,-472,15016,-36,202,144
331874223,-2664,-472,15100,14,231,226
331877606,-2688,-396,14980,-151,221,131
331881163,-2800,-504,15040,-17,151,222
331884633,-2648,-444,15016,-78,261,176
331888103,-2644,-500,14940,-28,171,195
331891573,-2560,-380,14744,-72,298,168
331895066,-2812,-508,15104,44,174,248
331898426,-2256,-472,14800,12,272,150
331901809,-2936,-388,15112,-118,271,107
331905369,-2524,-404,14676,39,80,328
331908697,-2604,-520,14936,-237,400,-23
331912219,-3000,-540,15284,98,33,366
331915516,-2396,-488,14884,-211,428,-40
331919097,-2928,-424,15248,85,70,383
331922369,-2284,-520,14576,-108,338,40
331925839,-3000,-328,15268,-77,208,210
331929309,-2292,-448,14512,83,182,226
331932692,-2880,-456,15040,-148,365,57
331936162,-2624,-412,14728,-28,163,206
331939632,-2928,-352,15116,-61,379,92
331943040,-2388,-496,14880,-116,275,152
331946572,-2916,-384,15064,-49,181,213
331950042,-2492,-612,14876,-85,319,116
331953512,-2988,-472,15136,-70,135,216
331956982,-2548,-488,15024,30,311,132
331960365,-2820,-480,15052,-53,195,219
331963835,-2672,-492,14980,75,251,204
331967268,-2612,-472,14848,-30,268,218
331970689,-2604,-508,15076,-82,269,80
331974072,-2884,-292,15020,2,206,286
331977368,-2636,-516,15116,-157,312,-5
331980838,-2972,-400,14988,54,120,368
331984222,-2592,-500,14860,-199,344,-22
331987778,-2996,-384,15108,34,87,335
331991075,-2640,-468,14904,-106,390,40
331994568,-2912,-496,15308,79,116,269
331997928,-2176,-600,14784,-42,363,65
332001311,-2724,-444,15040,-3,160,167
332004695,-2488,-452,14996,-23,346,124
332008165,-2732,-532,15048,-52,213,218
332011670,-2724,-460,14932,4,163,198
332014931,-2616,-320,14872,-74,266,196
332018426,-2704,-388,14840,-59,172,160
332021871,-2644,-412,15140,11,237,194
332025254,-2744,-564,14948,38,157,300
332028638,-2388,-544,14996,-11,286,142
332032108,-2896,-420,15044,-19,219,269
332035578,-2552,-536,14668,-111,288,29
332039048,-2724,-456,15148,79,175,313
332042455,-2412,-384,14736,-79,249,149
332045901,-2920,-568,15216,8,168,252
332049197,-2432,-592,14648,-73,224,187
332052667,-2736,-456,15112,-99,232,109
332056137,-2516,-456,14924,-53,289,187
332059607,-2772,-372,14952,-4,112,272
332062991,-2720,-424,14916,-31,342,71
332066374,-3008,-444,15400,74,116,328
332069859,-2428,-432,14624,-87,235,118
332073227,-2784,-436,14944,-115,297,83
332076697,-2892,-448,15076,-59,196,169
332080167,-2708,-372,14936,17,244,291
332083550,-2548,-512,14896,-80,207,170
332087020,-2984,-416,15136,-20,193,229
332090490,-2524,-488,14768,-39,235,225
332093984,-2752,-428,15072,2,124,242
332097257,-2516,-484,14760,-82,377,122
332100727,-2880,-564,15248,131,111,313
332104197,-2304,-616,14584,-92,335,112
332107667,-3076,-308,15216,24,104,378
332111050,-2364,-420,14660,-103,260,107
332114646,-2988,-336,15360,-4,226,289
332118015,-2280,-548,14412,-137,197,119
332121547,-3008,-368,15124,6,186,283
332124843,-2480,-476,14752,-28,143,225
332128313,-2784,-432,14980,-54,278,125
332131783,-2628,-548,14928,5,251,209
332135080,-2716,-420,15004,10,265,140
332138463,-2640,-588,14952,-56,303,177
332141937,-2708,-560,15064,-80,151,147
332145451,-2936,-464,15220,-47,285,202
332148873,-2544,-428,14664,-114,211,143
332152430,-2776,-384,14892,-52,221,171
332155900,-2772,-416,15036,-89,283,217
332159370,-2612,-484,14972,70,168,216
332162753,-2992,-472,15104,-28,300,189
332166223,-2544,-460,14760,9,125,222
332169544,-2772,-380,14924,25,218,203
332172903,-2652,-464,14912,-39,210,227
332176373,-2780,-372,14872,-155,311,72
332179843,-2568,-592,14924,102,180,360
332183313,-2492,-420,14688,-188,290,-23
332186870,-2780,-392,14956,83,101,382
332190253,-2420,-464,14636,-222,297,7
332193659,-2920,-484,15012,68,99,293
332196933,-2564,-456,14852,-43,279,176
332200403,-2660,-464,15088,1,205,144
332203699,-2540,-472,14788,42,271,221
332207082,-2676,-460,14744,-129,301,17
332210552,-3092,-320,15076,19,67,385
332213849,-2556,-408,14600,-95,332,101
332217362,-2900,-464,15108,-13,103,308
332220789,-2412,-408,14844,-119,373,62
332224259,-2884,-452,15048,-43,154,240
332227729,-2536,-524,14816,-26,326,118
332231199,-2844,-516,15112,-15,178,185
332234669,-2620,-420,14672,64,197,201
332238052,-2580,-440,14820,-46,295,146
332241522,-2676,-452,15148,-14,177,138
332245041,-2760,-392,14864,-119,312,196
332248549,-2624,-468,15056,-65,133,264
332252019,-2584,-500,14916,-74,247,193
332255489,-2612,-400,14864,-47,266,211
332258959,-2692,-412,14936,-2,231,141
332262342,-2924,-524,15116,107,198,300
332265812,-2592,-416,14820,-102,221,109
332269393,-2744,-384,14948,-50,218,220
332272839,-2596,-428,14860,-57,233,175
332276309,-2708,-420,14992,-12,181,187
332279779,-2644,-428,15068,-45,303,214
332283249,-2636,-444,15000,-28,197,151
332286719,-2708,-504,15004,-49,247,197
332290189,-2460,-588,14820,-132,306,98
332293683,-2712,-520,15088,18,161,243
332297042,-2524,-428,14960,-50,260,154
332300512,-2808,-460,15148,7,149,183
332303809,-2524,-428,14768,27,282,211
332307192,-2556,-520,14780,-66,258,105
332310662,-2648,-484,15000,-50,289,150
332314132,-2632,-592,15208,-36,227,237
332317644,-2720,-492,14948,-95,173,189
332321072,-2692,-576,15176,-80,280,168
332324542,-2568,-496,15044,-85,205,183
332328012,-2876,-484,15256,48,229,207
332331395,-2312,-536,14800,-34,286,157
332334865,-2948,-336,15240,33,260,123
332338248,-2508,-512,14796,-32,351,138
332341722,-2892,-476,15200,-62,197,125
332345237,-2588,-480,14780,41,254,229
332348572,-2524,-604,14984,-125,221,112
332352128,-3072,-464,15252,41,125,304
332355512,-2312,-444,14652,-105,312,118
332359068,-2940,-468,15168,-54,151,219
332362538,-2452,-400,14688,51,237,237
332365922,-2656,-536,15084,-209,356,-29
332369503,-2516,-372,14716,129,40,393
332372862,-2548,-412,14948,-168,415,3
332376245,-2788,-184,14912,55,55,333
332379541,-2444,-424,14780,-123,369,89
332383011,-3016,-444,15264,-15,146,310
332386481,-2364,-496,14708,-50,202,192
332389951,-2940,-408,15176,-49,255,238
332393446,-2360,-536,14760,10,96,254
332396718,-2872,-372,14872,-112,388,73
332400188,-2540,-488,14792,71,121,239
332403571,-2688,-468,14936,-45,348,116
332407041,-2720,-448,14896,-63,207,166
332410511,-2724,-408,14716,-50,279,174
332413981,-2780,-380,14896,-95,279,186
332417474,-2832,-444,15012,52,128,299
332420869,-2328,-532,14672,-134,398,57
332424304,-3128,-328,15156,19,82,319
332427601,-2316,-544,14700,-105,308,93
332431071,-3032,-352,15240,-39,142,254
332434541,-2344,-408,14832,44,231,182
332437924,-2820,-352,15036,0,275,219
332441221,-2636,-484,14864,17,171,172
332444652,-2556,-348,14760,-110,360,135
332448161,-2948,-392,15196,-21,56,299
332451544,-2456,-304,14668,-69,280,173
332455014,-2880,-304,15344,-116,157,228
332458571,-2484,-404,14816,-61,256,144
332462041,-2836,-424,15088,-8,280,236
332465424,-2628,-596,14912,55,161,220
332468832,-2684,-468,14888,-1,250,197
332472190,-2728,-440,15192,-28,248,92
332475574,-2616,-348,14832,13,224,257
332478957,-2752,-496,15064,-65,295,122
332482427,-2540,-520,14884,-6,137,247
332485810,-2844,-260,14996,-78,284,251
332489280,-2788,-384,15004,-24,147,152
332492775,-2652,-444,14884,-26,257,179
332496220,-2816,-440,15260,-4,187,193
332499603,-2548,-408,14756,-8,240,219
332502987,-2752,-428,15036,-19,254,229
332506457,-2484,-504,14784,-45,250,116
332509927,-2772,-456,15068,-3,281,181
332513310,-2636,-344,14776,-55,148,276
332516783,-2744,-572,15112,-16,246,158
332520273,-2620,-480,15092,-87,207,254
332523755,-2716,-524,15072,-76,196,141
332527190,-2620,-492,15132,-60,286,230
332530660,-2680,-464,14948,-94,246,138
332534130,-2696,-488,15048,44,207,230
332537513,-2596,-528,14988,-8,189,206
332540896,-2520,-512,14864,-51,226,147
332544391,-2764,-344,15152,-98,304,114
332547836,-2488,-476,14700,-84,168,197
332551306,-2812,-460,15264,-1,308,180
332554690,-2656,-404,14860,-129,204,193
332558246,-2840,-428,15020,-40,223,168
332561716,-2532,-428,14960,-46,244,239
332565186,-2688,-496,14904,-107,245,108
332568804,-2752,-356,14924,93,247,201
332572126,-2556,-500,14904,29,150,230
332575510,-2736,-448,14928,-64,342,77
332578893,-2456,-632,14796,2,250,181
332582189,-2872,-348,14964,-167,239,140
332585746,-2848,-488,15100,58,237,289
332589129,-2536,-440,14932,-109,233,99
332592624,-2796,-288,15096,-18,211,267
332596069,-2612,-488,14812,-128,222,104
332599626,-2816,-480,15116,27,164,273
332603009,-2588,-464,14932,-10,264,215
332606479,-2768,-324,14848,1,133,218
332609776,-2584,-420,14896,-64,372,96
332613159,-2932,-352,14912,-46,153,199
332616633,-2616,-444,14764,-94,231,188
332620122,-2796,-396,15024,-139,258,147
332623659,-2852,-552,15252,19,113,293
332627074,-2672,-412,14808,-146,351,103
332630596,-2888,-536,15156,12,136,246
332633979,-2748,-476,14932,-77,339,81
332637362,-2920,-340,15164,92,85,341
332640659,-2540,-500,14820,-15,249,94
332644067,-2680,-488,14812,-122,378,54
332647512,-3084,-416,15128,66,40,345
332650809,-2144,-516,14592,-134,409,71
332654279,-3252,-404,15308,-93,202,140
332657749,-2256,-504,14624,10,251,205
332661132,-2868,-316,15088,-175,286,67
332664602,-2540,-496,14828,138,102,298
332668120,-2444,-476,14784,-176,396,13
332671542,-3024,-464,15296,162,11,452
332674925,-2372,-476,14628,-101,444,-8
332678395,-3096,-512,15172,-19,102,277
332681865,-2540,-476,14812,-84,349,64
332685248,-2912,-292,15196,-40,150,245
332688718,-2584,-392,14632,-111,278,90
332692213,-3012,-484,15080,-72,213,242
332695658,-2424,-448,14720,-97,168,160
332699128,-3008,-412,15144,-18,272,232
332702598,-2676,-480,15044,-118,292,38
332706068,-2920,-592,15188,126,132,357
332709538,-2364,-472,14516,-127,413,13
332713008,-2896,-436,15192,-94,256,97
332716392,-2748,-328,14924,46,206,295
332719798,-2748,-444,15068,-144,281,62
332723245,-2824,-376,14896,18,115,311
332726632,-2820,-376,15036,-166,320,62
332730133,-2656,-548,14888,-22,157,255
332733568,-2716,-384,14992,-47,308,170
332737038,-2828,-508,15004,-14,191,146
332740508,-2552,-532,14636,46,225,221
332743916,-2796,-492,15160,-96,309,68
332747275,-2632,-340,14960,-41,165,237
332750745,-2936,-348,15060,-112,342,96
332754215,-2552,-436,14920,49,150,231
332757598,-2760,-480,14988,-182,334,96
332761068,-2956,-452,15148,40,64,299
332764364,-2260,-540,14832,-157,336,36
332767883,-2920,-376,15184,-10,132,293
332771304,-2436,-588,14892,-8,259,89
332774601,-2792,-556,15052,142,144,393
332778071,-2324,-428,14640,-120,282,11
332781541,-2828,-452,14996,12,267,250
332784924,-2452,-580,14796,-76,188,134
332788394,-2892,-456,15088,5,106,284
332791694,-2464,-544,14820,-104,301,91
332795185,-2840,-492,15080,13,113,253
332798544,-2592,-388,14900,-18,267,214
332802014,-2824,-336,15060,-55,216,94
332805397,-2272,-544,14736,-39,281,173
332808867,-3032,-452,15168,-31,265,136
332812337,-2396,-508,14752,-95,278,85
332815720,-3016,-332,15316,-25,285,212
332819214,-2500,-452,14748,-117,212,174
332822747,-2888,-492,15072,45,229,250
332826130,-2492,-416,14716,-119,286,118
332829691,-2832,-304,15020,-31,224,160
332833192,-2568,-536,15024,-29,309,174
332836627,-2712,-476,15156,3,101,248
332839924,-2508,-396,14740,-32,326,161
332843418,-2828,-584,15032,-29,219,177
332846864,-2556,-488,14832,15,259,189
332850247,-2776,-500,15152,-28,227,258
332853717,-2584,-472,14912,15,153,209
332857100,-2668,-412,15016,-68,288,157
332860570,-2624,-492,15036,-77,154,194
332864040,-2704,-488,14784,-90,222,181
332867558,-2932,-392,15156,-45,235,196
332870980,-2468,-508,14840,-27,256,112
332874450,-3068,-396,15316,7,255,242
332877747,-2388,-456,14600,8,227,143
332881043,-3008,-320,14916,-42,221,224
332884513,-2752,-304,14716,14,173,275
332887896,-2424,-660,14956,-67,265,70
332891284,-2836,-468,15120,-87,260,271
332894774,-2504,-440,14852,-11,142,225
332898220,-3120,-408,15244,-79,283,139
332901690,-2456,-452,14920,40,135,277
332905073,-2432,-584,14832,-87,253,75
332908456,-2884,-444,15080,86,142,325
332911839,-2308,-640,14668,-105,308,-41
332915396,-2952,-424,15072,21,219,297
332918803,-2416,-536,14936,-87,314,105
332922249,-2796,-480,15144,41,115,327
332925633,-2536,-544,14784,-120,302,74
332929103,-2836,-380,15224,-38,100,259
332932573,-2480,-508,14740,-111,384,72
332936078,-2768,-568,15052,-3,93,304
332939339,-2580,-456,14912,-42,336,118
332942834,-2944,-436,15080,20,211,264
332946192,-2644,-364,14784,-16,236,153
332949662,-2856,-388,15024,-59,248,155
332953132,-2468,-568,14836,-119,243,119
332956689,-3120,-464,15176,9,251,257
332959986,-2340,-528,14896,-102,259,84
332963456,-2940,-360,15216,-80,215,220
332966929,-2516,-596,14824,-77,311,112
332970445,-2832,-444,15080,-33,163,238
332973866,-2856,-500,15128,76,240,220
332977249,-2156,-596,14652,-24,157,144
332980719,-3096,-380,14996,-28,204,194
332984189,-2392,-476,14644,-101,224,152
332987746,-3104,-324,15340,56,44,421
332991042,-2348,-484,14508,-122,295,112
332994623,-2900,-520,15320,-146,238,92
332998069,-2396,-516,14852,19,267,237
333001452,-2936,-348,15188,-93,205,124
333004922,-2372,-552,14980,68,236,201
333008305,-2900,-372,15024,-122,274,111
333011862,-2564,-508,14756,38,179,184
333015245,-2596,-452,15156,-30,258,258
333018739,-2696,-328,14688,-162,238,76
333022185,-2708,-524,15144,-19,214,230
333025655,-2856,-372,15020,-90,247,199
333029125,-2672,-448,14864,-62,203,191
333032595,-2552,-548,15124,-36,307,169
333036104,-2728,-452,14996,-24,171,224
333039535,-2556,-484,14828,-26,259,145
333043030,-2764,-444,14884,47,136,298
333046389,-2376,-648,14708,-69,368,38
333049772,-2828,-400,15032,77,192,323
333053155,-2580,-592,14824,-100,263,46
333056625,-2952,-388,15300,70,145,361
333060008,-2448,-476,14780,-177,279,60
333063478,-3004,-436,15312,74,77,363
333066778,-2496,-492,14644,-186,334,14
333070347,-3248,-288,15364,77,140,308
333073628,-2248,-496,14596,-117,432,27
333077098,-3140,-408,15312,23,127,227
333080481,-2352,-376,14592,-98,391,36
333083865,-3332,-280,15272,-113,184,158
333087421,-2452,-548,14800,-37,216,195
333090891,-2972,-460,15204,-106,255,148
333094473,-2436,-396,14876,-23,183,179
333097918,-2912,-532,15216,-49,304,133
333101388,-2528,-480,14864,-96,153,175
333104858,-2992,-444,15100,65,179,272
333108241,-2348,-592,14596,-86,283,118
333111711,-2848,-436,15128,71,122,317
333115095,-2452,-484,14644,-103,324,118
333118675,-2960,-340,15084,-55,130,244
333122121,-2656,-592,14888,-12,367,157
333125591,-2948,-256,15052,-73,140,257
333129061,-2412,-548,14804,-28,250,149
333132531,-2908,-396,15176,-35,199,268
333136005,-2548,-492,14708,-22,173,154
333139510,-2748,-584,14996,17,272,201
333142879,-2476,-496,15040,31,190,187
333146238,-2796,-424,14784,13,260,186
333149621,-2764,-464,15192,-128,337,46
333153091,-2988,-296,15128,47,125,293
333156474,-2504,-588,14744,-99,313,124
333159944,-2900,-432,15048,-64,142,225
333163414,-2676,-452,14996,-62,272,183
333166888,-2884,-424,14936,-65,184,184
333170403,-2816,-476,14980,29,182,208
333173738,-2440,-528,14696,-14,263,232
333177208,-2800,-384,15124,-8,213,149
333180591,-2580,-420,14744,20,268,222
333183974,-2720,-432,15064,-162,307,35
333187444,-2860,-280,14916,34,119,328
333190827,-2728,-392,14900,-68,256,144
333194322,-2628,-488,15004,-72,188,151
333197767,-2900,-372,15004,-61,270,188
333201237,-2568,-436,15008,-59,215,172
333204707,-2732,-300,14984,31,230,257
333208091,-2588,-564,14916,-52,233,120
333211561,-2848,-352,15148,96,98,325
333214857,-2420,-388,14544,-131,356,36
333218350,-3068,-408,15188,3,82,321
333221537,-2512,-552,14892,-67,320,180
333225007,-2756,-524,15164,-27,153,181
333228477,-2484,-408,14700,-40,223,228
333231947,-2716,-384,15076,-157,307,55
333235417,-2528,-512,14776,19,128,267
333238800,-2808,-380,14924,-127,336,111
333242400,-2892,-504,15056,93,97,301
333245653,-2472,-480,14804,-62,298,152
333249123,-2828,-520,15144,14,224,218
333252507,-2300,-408,14720,-170,325,28
333255977,-3040,-360,15196,-105,227,236
333259533,-2596,-536,14816,-52,202,160
333263003,-2716,-472,14928,-19,252,268
333266473,-2700,-408,14996,-120,203,168
333270079,-2684,-440,15124,8,178,141
333273327,-2580,-444,15064,-98,343,125
333276797,-2976,-504,15212,110,157,292
333280267,-2572,-600,14784,7,310,146
333283563,-2928,-576,15152,-123,281,49
333287033,-2744,-492,14956,-3,194,249
333290416,-2876,-248,15008,-91,234,219
333293911,-2508,-532,14948,67,191,238
333297270,-2776,-536,15020,-94,278,165
333300740,-2792,-460,14876,-37,154,210
333304210,-2824,-424,15240,-34,287,157
333307680,-2512,-516,14964,6,88,271
333310889,-2740,-456,14920,25,305,179
333314273,-2500,-456,14700,-106,244,132
333317854,-2824,-404,15016,-26,281,107
333321299,-2504,-480,14680,-100,296,180
333324856,-3024,-432,15140,-72,226,145
333328326,-2472,-424,14900,51,202,260
333331709,-2776,-496,15040,-126,216,72
333335179,-2596,-496,14856,-34,142,260
333338649,-2620,-456,14940,-88,360,69
333342036,-2864,-476,15176,-2,126,268
333345481,-2540,-424,14812,41,309,173
333348799,-2728,-476,14868,-31,204,170
333352269,-2508,-540,14932,-3,277,141
333355652,-2876,-276,15168,-112,269,120
333359209,-2680,-472,15052,9,163,219
333362506,-2752,-520,15108,-100,255,195
333366062,-2680,-476,14852,-90,197,137
333369557,-2680,-420,15168,26,228,262
333372916,-2600,-476,14864,-94,287,140
333376386,-2916,-564,15256,36,213,158
333379769,-2520,-460,14776,7,360,174
333383065,-2516,-548,14932,-75,232,76
333386449,-3028,-288,15056,85,212,307
333389832,-2436,-484,14720,-133,320,49
333393326,-2896,-436,15240,-20,214,233
333396772,-2468,-420,14684,-121,310,170
333400329,-2840,-476,15096,-77,202,146
333403799,-2660,-364,14864,-71,295,135
333407269,-3132,-272,15228,20,165,228
333410652,-2208,-708,14744,21,288,138
333414035,-3104,-536,15208,45,173,328
333417443,-2328,-412,14464,69,147,256
333420802,-2856,-316,14936,-77,310,158
333424272,-2676,-408,14784,-5,129,244
333427655,-2576,-436,14816,-85,357,102
333431125,-2600,-680,15136,-62,172,222
333434595,-2636,-364,14760,-92,326,78
333437978,-2672,-528,15088,32,160,332
333441361,-2608,-492,14772,-140,299,-13
333444965,-2692,-612,15084,159,141,386
333448423,-2468,-264,14692,-101,290,46
333451858,-2884,-536,15216,59,125,295
333455241,-2352,-448,14636,-133,368,29
333458711,-3104,-396,15452,63,51,338
333462008,-2364,-408,14604,-75,375,118
333465478,-2856,-372,15276,-108,180,172
333469059,-2492,-356,14852,7,181,272
333472331,-2692,-452,15024,-103,265,55
333475801,-2816,-452,15036,0,196,223
333479098,-2732,-452,15060,-49,231,195
333482568,-2580,-516,14916,28,250,152
333485951,-2616,-516,14864,-50,345,139
333489421,-2804,-436,15048,-50,129,215
333492915,-2720,-332,14936,-48,279,169
333496361,-2816,-488,15128,35,120,312
333499744,-2392,-532,14716,-133,285,47
333503214,-2956,-452,15228,-24,179,302
333506684,-2468,-512,14732,-38,222,121
333510154,-2836,-468,15088,-53,282,176
333513624,-2616,-436,14976,-3,265,168
333517011,-2708,-260,14896,-64,293,111
333520502,-2652,-348,14984,-24,303,188
333523947,-2824,-368,15044,-133,267,84
333527417,-2704,-536,15200,25,195,354
333530801,-2672,-496,15012,-164,227,85
333534271,-2804,-432,15164,-10,258,218
333537741,-2652,-500,14944,-155,283,70
333541211,-2812,-516,15168,95,150,282
333544653,-2520,-412,14932,-64,349,134
333548067,-2956,-340,15088,-31,223,181
333551569,-2500,-444,14832,44,233,223
333554917,-3008,-332,14948,-104,194,167
333558474,-2432,-444,14840,-98,243,149
333561944,-2980,-552,15192,-82,257,177
333565414,-2444,-540,14756,-50,227,104
333568908,-3108,-404,15044,-100,309,157
333572441,-2580,-456,14780,-58,198,168
333575911,-2816,-448,15148,-117,356,25
333579381,-2900,-316,15148,69,165,371
333582764,-2448,-324,14684,-148,322,-55
333586321,-3104,-452,15272,-34,246,231
333589791,-2604,-252,14720,-87,238,114
333593285,-2920,-436,15192,25,253,242
333596644,-2348,-480,14464,-141,267,148
333600201,-3008,-468,15176,-42,213,186
333603671,-2376,-404,14608,-72,307,163
333607141,-2796,-404,15076,-81,220,134
333610611,-2560,-480,14888,68,246,251
333613994,-2640,-372,14836,-100,244,45
333617488,-3052,-400,15200,151,50,395
333620847,-2320,-436,14568,-225,416,-96
333624404,-3308,-524,15272,95,48,370
333627700,-2412,-600,14704,-73,350,149
333631170,-2908,-436,15032,-31,135,208
333634640,-2380,-520,14844,-101,336,58
333638110,-3104,-544,15232,-131,155,229
333641671,-2412,-448,14716,-31,222,144
333645184,-2792,-544,15112,-88,266,191
333648607,-2704,-568,14872,37,143,177
333652025,-2632,-444,14836,-20,372,130
333655460,-2940,-300,15044,-2,157,244
333658844,-2688,-400,14820,-103,281,162
333662400,-2732,-504,15048,-70,260,195
333665870,-2472,-424,14896,-38,140,230
333669365,-2724,-504,14964,-84,360,83
333672724,-2644,-496,15148,-13,138,202
333676194,-2908,-464,15084,121,169,327
333679664,-2356,-544,14784,-149,311,32
333683134,-3116,-304,15268,164,85,392
333686517,-2220,-476,14468,-215,479,-64
333690074,-3244,-316,15460,2,102,258
333693395,-2056,-444,14432,-203,432,-20
333696927,-3284,-348,15624,44,55,365
333700223,-2124,-576,14396,-129,303,28
333703693,-3256,-412,15288,-132,276,148
333707250,-2480,-508,14944,17,183,210
333710633,-2888,-432,15196,-74,357,96
333714017,-2752,-408,14992,62,97,272
333717338,-2584,-564,14736,-11,279,99
333720696,-2616,-324,14948,-25,215,248
333724166,-2524,-348,14880,-100,231,104
333727723,-2632,-444,14992,-41,226,270
333731193,-2624,-452,14916,-73,190,189
333734663,-2672,-452,14972,-53,280,170
333738133,-2804,-384,14964,-35,214,239
333741607,-2720,-460,14880,-20,233,126
333745120,-2600,-388,15048,42,273,246
333748456,-2800,-468,14968,-33,170,174
333751930,-2496,-472,14764,30,247,226
333755345,-2924,-420,15048,-64,253,149
333758780,-2348,-572,14740,-21,228,166
333762250,-2864,-304,14948,-79,277,204
333765720,-2836,-260,14876,-88,168,165
333769214,-2632,-496,15028,1,266,196
333772486,-2656,-412,14996,-101,183,155
333776043,-2792,-432,15012,24,161,242
333779426,-2456,-608,14800,-52,256,202
333782896,-2848,-396,15012,17,240,149
333786279,-2428,-540,14792,-27,288,208
333789749,-2976,-416,14952,-53,227,114
333793244,-2448,-496,14784,-32,247,199
333796689,-2984,-424,15004,-158,241,126
333800246,-2684,-412,15024,14,133,273
333803629,-2520,-580,14812,-93,329,116
333807099,-2816,-352,15196,-71,112,224
333810569,-2652,-436,14936,81,291,248
333813953,-2568,-508,15068,-58,288,113
333817447,-2728,-576,15004,106,152,307
333820893,-2440,-532,14616,-85,241,178
333824363,-2848,-444,15120,-77,183,145
333827833,-2624,-512,14616,-70,257,235
333831303,-2916,-472,15232,-68,197,151
333834773,-2628,-456,14936,-16,145,341
333838243,-2872,-348,15036,-113,298,95
333841716,-2636,-484,15012,23,159,294
333845143,-2776,-268,14960,-70,331,125
333848566,-2604,-580,14972,11,178,166
333851949,-2684,-424,14792,24,224,212
333855371,-2816,-576,15256,-69,297,79
333858716,-2792,-456,14900,52,150,323
333862099,-2600,-616,14976,-149,317,124
333865656,-2788,-432,15088,-15,155,219
333869150,-2492,-488,14984,-96,368,72
333872509,-2876,-420,15020,-109,105,218
333876066,-2652,-484,14940,68,207,196
333879449,-2752,-476,15056,-65,257,140
333882919,-2748,-424,14980,49,159,231
333886302,-2612,-404,14932,-106,389,60
333889772,-2992,-436,15036,0,97,282
333893007,-2396,-532,14728,-79,341,67
333896365,-2880,-364,15136,-59,98,287
333899748,-2344,-568,14708,-9,288,163
333903132,-2876,-492,15188,-65,244,246
333906602,-2536,-512,14916,10,159,243
333909985,-2896,-520,15248,-5,290,197
333913368,-2188,-604,14688,-38,217,141
333916842,-3200,-344,15100,33,174,258
333920246,-2424,-560,14652,73,132,325
333923605,-2704,-404,14872,-92,351,50
333926988,-2508,-440,14688,10,226,276
333930371,-2744,-388,14820,-167,285,85
333933841,-2912,-420,15228,42,200,327
333937224,-2656,-436,14936,-120,236,73
333940694,-2856,-380,15008,-22,171,271
333944188,-2712,-376,15088,-108,328,47
333947634,-2672,-576,15132,18,151,288
333951018,-2664,-340,14880,-32,324,148
333954488,-2684,-372,15016,26,122,252
333957906,-2748,-428,14920,-65,306,133
333961341,-2708,-360,14824,-18,118,258
333964811,-2444,-600,14832,-89,313,77
333968243,-3008,-416,15148,5,168,306
333971491,-2456,-408,14864,-84,218,144
333974961,-2812,-408,15116,17,229,241
333978344,-2320,-568,14784,-77,218,156
333981814,-2908,-408,15284,-5,245,196
333985197,-2608,-560,14824,0,183,221
333988494,-2628,-432,14936,-8,283,132
333991880,-2484,-520,14708,-4,263,174
333995285,-2748,-384,14876,-107,242,146
333998817,-2576,-408,14860,-49,295,167
334002287,-2768,-472,15104,-78,116,248
334005757,-2544,-376,14988,-46,211,217
334009227,-2616,-524,14980,-115,243,168
334012784,-2892,-372,15104,-26,163,174
334016254,-2644,-472,15004,45,312,208
334019661,-2636,-496,14964,-17,188,188
334023107,-2840,-356,14872,-23,255,190
334026577,-2668,-408,15016,-126,324,120
334030134,-3096,-384,15116,5,148,296
334033430,-2520,-536,14752,-44,278,145
334036900,-2884,-524,15192,-103,171,188
334040457,-2580,-452,14892,-22,250,173
334043950,-2672,-440,15272,-150,263,82
334047397,-2928,-412,14956,163,146,348
334050867,-2488,-492,14872,-76,361,71
334054250,-2900,-484,15164,84,134,212
334057637,-2524,-340,14528,-125,386,96
334061138,-2920,-412,15056,14,116,225
334064487,-2228,-528,14512,-211,357,8
334067972,-3124,-396,15348,-63,151,265
334071340,-2380,-572,14808,-22,215,211
334074810,-2872,-420,15160,-30,265,207
334078280,-2660,-468,14908,21,178,151
334081663,-2512,-548,14964,-29,296,155
334085133,-2948,-408,15156,-24,191,198
334088603,-2540,-460,14768,24,196,242
334091990,-2660,-420,14940,-128,340,80
334095481,-2812,-456,14980,-12,153,244
334098926,-2556,-492,15116,-67,287,148
334102396,-2688,-432,14996,-77,157,209
334105866,-2728,-404,15004,-32,322,131
334109336,-2744,-420,15108,-33,196,296
334112806,-2716,-424,15056,-44,258,106
334116276,-2796,-548,14884,-10,251,188
334119771,-2456,-556,14980,-6,202,183
334123130,-2604,-464,14996,8,298,200
334126426,-2804,-364,14940,-82,252,154
334129896,-2752,-352,14716,-92,261,142
334133366,-2612,-432,14892,-38,263,206
334136836,-2576,-436,14880,-59,136,214
334140306,-2664,-456,14932,-84,333,101
334143799,-2708,-544,15044,0,105,268
334147073,-2596,-532,14992,5,329,138
334150369,-2732,-504,15024,17,192,214
334153752,-2488,-640,14900,-3,236,173
334157136,-2744,-396,14860,-59,212,188
334160606,-2508,-540,15004,-90,261,108
334164115,-3028,-160,15016,-49,231,260
334167594,-2544,-544,14620,-106,254,53
334171016,-2984,-368,15128,-42,240,247
334174486,-2480,-524,14852,-116,248,157
334178042,-2824,-368,15116,-49,243,151
334181512,-2548,-400,14788,38,235,221
334184896,-2796,-476,15152,-113,256,101
334188452,-2592,-328,14640,96,205,314
334191839,-2516,-548,14936,-132,311,18
334195330,-3040,-396,15048,68,120,380
334198689,-2328,-484,14692,-151,337,67
334202159,-3152,-304,15324,85,3,412
334205369,-2312,-712,14712,-151,403,51
334208839,-3000,-380,15148,-91,129,211
334212309,-2512,-648,14768,-61,336,126
334215779,-2848,-344,15024,-9,163,210
334219186,-2656,-524,14900,-16,215,164
334222632,-2844,-432,15016,2,252,203
334225928,-2556,-420,14896,-20,184,176
334229398,-2896,-412,15156,-13,247,242
334232868,-2444,-580,14904,-50,191,160
334236338,-2816,-500,15216,-59,261,151
334239808,-2680,-432,14936,11,82,336
334243128,-2512,-540,14872,-110,272,83
334246575,-2760,-452,14968,23,233,272
334249958,-2656,-512,14852,-57,213,138
334253428,-2800,-396,14924,77,234,256
334256811,-2728,-488,14768,-44,208,154
334260281,-2876,-456,15176,23,227,178
334263668,-2648,-480,14912,-66,195,237
334267201,-2732,-496,15004,-77,153,197
334270605,-2472,-408,14864,-34,250,264
334274075,-2752,-396,15032,-118,194,130
334277631,-2480,-480,14872,50,201,290
334281015,-2556,-412,14892,-119,330,46
334284485,-2860,-336,15096,79,141,265
334287868,-2660,-448,14860,-62,303,164
334291338,-2824,-268,15116,84,85,279
334294659,-2440,-468,14696,-88,366,65
334298018,-2924,-400,15220,-41,106,278
334301488,-2472,-604,14728,-52,281,140
334304958,-2940,-460,15112,-89,234,216
334308428,-2344,-652,14772,-2,176,168
334311811,-2888,-324,15192,-162,354,98
334315281,-2520,-432,14848,94,77,328
334318602,-2536,-328,14752,-163,421,-6
334322047,-3004,-464,15280,100,107,362
334325517,-2404,-424,14632,-45,304,104
334328987,-2828,-436,15116,26,244,231
334332371,-2600,-360,14876,-89,176,175
334335841,-2808,-444,15088,-84,316,131
334339311,-2636,-496,14824,-99,111,213
334342805,-2748,-400,14940,-55,309,190
334346251,-2708,-464,15052,-51,224,214
334349721,-2728,-368,14884,44,209,167
334353104,-2528,-404,14816,15,339,165
334356487,-2844,-364,14944,-104,226,105
334360044,-2432,-488,15052,-12,259,166
334363514,-2900,-272,14896,-63,255,151
334367034,-2552,-588,15108,-47,226,159
334370489,-2876,-456,15224,-89,295,151
334373924,-2692,-412,15112,-82,179,176
334377394,-2784,-496,15020,-57,282,191
334380864,-2672,-484,14836,-55,190,214
334384334,-2708,-456,15044,32,267,134
334387717,-2592,-552,15092,-45,201,224
334391187,-2808,-476,14992,19,186,188
334394595,-2424,-480,14680,-53,230,265
334398040,-2804,-424,15052,-214,320,-41
334401597,-2768,-548,15180,49,85,403
334404894,-2604,-440,14836,-119,331,99
334408364,-2688,-516,14944,81,9,423
334411573,-2384,-456,14640,-251,443,-71
334415130,-2808,-576,15300,126,20,376
334418538,-2336,-544,14548,-89,365,54
334421897,-3092,-456,15480,81,172,272
334425280,-2216,-424,14492,36,159,286
334428663,-3020,-384,15116,-25,269,225
334432133,-2328,-500,14712,-24,99,277
334435516,-2740,-420,14952,-160,400,60
334438986,-2744,-424,15008,45,67,353
334442307,-2260,-528,14696,-157,392,-32
334445840,-3416,-332,15428,116,55,477
334449223,-2156,-536,14704,-85,341,1
334452519,-3104,-348,15272,-71,243,237
334455989,-2528,-496,14760,-60,248,82
334459373,-2972,-488,15096,37,263,221
334462756,-2508,-560,14792,-33,227,143
334466226,-2756,-352,15000,-64,247,152
334469743,-2852,-516,15252,-37,203,239
334473201,-2752,-504,15004,-191,310,14
334476636,-3004,-452,15368,96,153,376
334480019,-2496,-504,14840,-203,349,-56
334483576,-3124,-436,15488,207,61,405
334486959,-2424,-500,14872,-169,392,15
334490434,-2984,-408,15000,71,84,333
334493750,-2528,-452,14596,-75,359,110
334497196,-2856,-472,15168,-44,220,148
334500666,-2564,-416,14856,-39,227,181
334504136,-2940,-340,15284,-179,256,100
334507692,-2576,-372,14844,-13,114,233
334511162,-2712,-396,14956,-190,348,101
334514719,-3016,-496,15104,13,117,285
334518127,-2480,-524,14804,-44,362,52
334521486,-3060,-396,15172,16,126,226
334524869,-2288,-412,14560,-58,253,88
334528252,-3232,-272,15308,-90,293,140
334531722,-2392,-548,14756,-29,202,145
334535192,-3032,-304,14920,-143,303,170
334538749,-2524,-380,14760,-43,170,166
334542243,-2764,-392,14892,-96,267,155
334545689,-2724,-328,14992,-99,212,188
334549159,-2624,-440,14960,-16,241,150
334552629,-2884,-384,15080,38,245,223
334556012,-2756,-512,14876,-46,202,128
334559482,-2796,-400,14976,27,192,255
334562865,-2572,-404,14788,-83,225,141
334566335,-2772,-460,14928,-130,331,108
334569952,-2864,-432,15088,43,152,372
334573310,-2172,-592,14656,-107,218,122
334576832,-3208,-340,15348,8,207,273
334580129,-2400,-456,14596,-1,171,206
334583512,-2764,-432,15052,-42,206,164
334586982,-2836,-412,14868,50,171,274
334590365,-2396,-476,14640,-35,269,131
334593860,-2988,-300,15104,114,190,310
334597305,-2236,-576,14484,-140,263,57
334600775,-3172,-352,15020,59,134,341
334604158,-2396,-504,14760,-15,155,232
334607628,-2980,-464,15168,-112,181,141
334611185,-2608,-524,14956,2,232,278
334614482,-2672,-496,14820,-138,239,70
334617976,-2832,-496,15164,160,143,392
334621422,-2308,-500,14528,-148,418,-25
334624978,-2900,-452,15288,145,51,372
334628362,-2232,-368,14568,-163,451,-10
334631918,-2956,-380,15156,-55,108,243
334635388,-2492,-384,14604,-105,254,166
334638945,-2944,-452,15024,-68,185,175
334642440,-2636,-388,14900,-35,150,206
334645885,-2672,-364,15012,-50,302,194
334649355,-2620,-512,15012,-84,213,153
334652825,-2660,-520,15024,1,315,171
334656122,-2684,-516,14812,-33,158,230
334659592,-2752,-428,14836,16,199,257
334662975,-2592,-512,14880,-61,255,193
334666445,-2736,-424,14944,-43,193,155
334669962,-2612,-424,14736,-98,307,170
334673420,-2828,-516,15156,-69,181,178
334676855,-2452,-532,14816,17,256,213
334680238,-2796,-408,14880,-127,286,149
334683795,-2640,-476,15000,58,129,270
334687178,-2768,-376,14996,-77,261,189
334690648,-2600,-432,14892,-22,214,141
334694143,-2956,-308,15208,95,236,274
334697501,-2444,-564,14728,-135,305,62
334700971,-2972,-436,15320,-58,284,129
334704441,-2412,-512,14736,-101,324,124
334707998,-3064,-360,15128,20,172,227
334711381,-2284,-516,14924,-138,335,101
334714938,-2876,-488,15200,-70,128,235
334718433,-2632,-364,14984,-24,202,163
334721878,-2860,-372,15040,-57,225,191
334725348,-2552,-452,14948,-34,190,136
334728818,-2876,-456,15240,-21,307,163
334732288,-2408,-420,14744,-128,281,83
334735758,-3236,-440,15332,-25,298,121
334739228,-2376,-500,14728,-94,219,221
334742723,-3184,-220,15268,-60,245,130
334746168,-2196,-680,14680,-91,328,127
334749638,-2888,-400,15108,-96,183,148
334753108,-2716,-464,15248,53,199,236
334756491,-2572,-452,14900,-65,259,134
334759961,-2844,-536,15072,74,197,213
334763345,-2268,-428,14544,-53,365,106
334766818,-3196,-300,15148,-70,248,105
334770332,-2100,-580,14500,12,251,222
334773703,-3056,-400,15236,-242,283,26
334777138,-2636,-364,15000,6,117,313
334780434,-2672,-412,15084,-179,421,-50
334783991,-2992,-504,15320,73,8,412
334787201,-2208,-544,14580,-143,436,-29
334790758,-2888,-456,15212,98,-13,391
334794165,-2324,-436,14636,-175,426,-61
334797698,-3068,-400,15140,122,66,403
334801081,-2196,-476,14540,-168,398,-117
334804724,-3084,-292,15108,12,118,392
334808108,-2236,-460,14664,-190,337,16
334811578,-3044,-468,15260,0,147,324
334814874,-2376,-488,14852,-61,209,121
334818369,-2868,-608,15276,-1,155,225
334821727,-2560,-472,14984,-11,268,195
334825197,-2912,-480,15080,43,142,248
334828581,-2588,-440,14804,52,247,233
334831964,-2780,-424,14724,-111,266,135
334835521,-2572,-448,14668,-30,212,193
334838991,-2828,-476,15028,-74,321,187
334842485,-2624,-460,14808,-13,196,180
334845931,-2796,-360,14936,-43,210,236
334849401,-2748,-444,14960,-7,153,239
334852784,-2628,-452,14732,-97,288,129
334856254,-2584,-428,14908,-26,244,204
334859724,-2720,-448,15032,40,174,249
334863107,-2524,-476,14824,-42,368,84
334866494,-2988,-232,15108,-64,164,169
334870008,-2440,-432,14828,-80,332,97
334873347,-2976,-348,15156,-88,186,207
334876848,-2604,-524,14952,-48,173,186
334880284,-2876,-384,15088,-109,284,163
334883840,-2524,-476,14924,-87,221,137
334887310,-2716,-492,15124,53,272,199
334890694,-2588,-464,14960,-34,210,164
334894188,-2668,-552,15120,58,169,244
334897547,-2572,-328,14596,-101,244,169
334901104,-3028,-208,15020,-69,210,149
334904574,-2704,-468,14856,12,230,275
334907957,-2576,-448,14860,-156,263,93
334911427,-2684,-492,15048,77,156,302
334914810,-2556,-452,14824,-137,329,77
334918305,-2916,-372,15148,-57,168,228
334921750,-2656,-520,14848,39,249,283
334925133,-2644,-452,14924,-52,257,82
334928517,-2916,-408,15088,46,237,252
334931900,-2444,-440,14660,-138,322,98
334935370,-2900,-484,15088,-22,196,200
334938840,-2616,-428,14772,-78,337,146
334942334,-2684,-476,14956,17,95,281
334945606,-2560,-408,14720,-124,347,102
334949163,-2756,-480,15164,-54,129,256
334952633,-2600,-372,14876,-7,290,225
334956016,-2836,-372,15164,7,203,202
334959313,-2440,-436,14836,-31,232,182
334962783,-2868,-348,15000,38,285,212
334966166,-2460,-552,14852,-21,196,161
334969684,-2804,-504,15060,46,220,259
334973019,-2452,-360,14756,-61,166,194
334976493,-2856,-488,15012,-100,284,169
334980081,-2648,-436,14904,-98,229,173
334983516,-2768,-444,15068,-102,229,139
334987073,-2872,-480,15152,88,264,243
334990456,-2556,-516,14732,-15,172,202
334993951,-2748,-604,15288,24,196,230
334997309,-2444,-540,14660,-11,197,195
335000779,-2796,-488,14996,-49,222,154
335004249,-2512,-332,14748,-51,235,275
335007719,-2740,-472,15028,-45,216,122
335011189,-2592,-572,14892,77,159,360
335014573,-2556,-476,15016,-141,349,59
335018067,-2696,-488,14988,0,126,283
335021339,-2484,-316,14632,-198,310,58
335024809,-2996,-368,15276,113,101,284
335028279,-2300,-452,14612,6,291,213
335031576,-2900,-404,14984,-10,182,157
335035046,-2444,-456,14792,15,265,186
335038429,-2988,-412,15276,-148,233,87
335041902,-2352,-572,14728,-78,177,229
335045471,-2956,-420,15064,-185,330,95
335048839,-2384,-496,14776,9,113,214
335052135,-2832,-480,14992,-124,359,54
335055605,-2876,-436,15100,48,182,319
335058989,-2632,-332,14856,-73,276,75
335062372,-2816,-456,15208,40,169,279
335065755,-2656,-364,14904,-71,261,66
335069162,-2868,-452,15076,-32,293,222
335072608,-2564,-640,14936,-60,218,171
335076078,-2832,-500,15108,30,159,273
335079462,-2568,-448,14860,-127,316,110
335083057,-2836,-416,14880,-19,159,223
335086488,-2532,-588,14856,-39,295,184
335089958,-2820,-352,15184,-54,233,107
335093453,-2632,-504,15036,53,262,210
335096812,-3028,-404,15100,1,165,214
335100108,-2376,-516,14616,5,307,159
335103405,-2844,-412,15016,-65,340,172
335106875,-2708,-496,14840,37,88,309
335110171,-2512,-412,14852,-165,381,46
335113641,-2868,-468,15144,26,79,330
335116963,-2196,-528,14632,-141,352,76
335120408,-3212,-424,15220,26,146,329
335123791,-2276,-604,14752,-48,263,110
335127261,-3020,-452,15196,-114,274,162
335130818,-2396,-444,14784,-49,221,136
335134288,-2836,-480,14900,-3,332,179
335137671,-2716,-436,14736,-93,206,179
335141141,-2760,-416,14812,-32,236,244
335144659,-2708,-516,15064,-26,220,220
335148081,-2784,-476,14880,-88,242,145
335151551,-2740,-500,15040,38,278,232
335154934,-2592,-436,14932,-70,175,190
335158404,-2752,-428,14996,23,216,177
335161787,-2660,-544,15084,-44,265,182
335165257,-2716,-472,14904,-26,251,125
335168751,-2716,-464,15196,60,246,285
335172111,-2456,-320,14780,-85,170,182
335175581,-3088,-264,15092,-20,194,218
335179051,-2476,-536,14792,10,117,298
335182434,-2552,-380,14780,-115,247,157
335186026,-2624,-560,15116,-57,273,192
335189461,-2924,-516,14984,-53,172,195
335192955,-2888,-432,15016,51,256,220
335196314,-2400,-616,14892,-46,288,111
335199784,-2808,-488,15080,2,262,84
335202994,-2880,-436,15088,-53,190,272
335206464,-2860,-332,15108,-148,249,73
335209934,-2864,-392,15348,104,149,448
335213404,-2224,-548,14628,-189,316,-15
335216985,-3004,-552,15248,104,141,366
335220430,-2580,-460,14796,-141,381,25
335223900,-2956,-460,15308,36,150,234
335227284,-2516,-416,14848,1,284,252
335230580,-2800,-516,14904,-3,217,123
335233963,-2624,-532,14812,71,222,337
335237347,-2584,-476,14800,-195,284,15
335240817,-2768,-600,15076,46,216,246
335244224,-2840,-416,14756,-95,271,191
335247670,-2592,-400,14992,-8,157,208
335251053,-2680,-460,14984,-114,292,161
335254610,-2900,-412,14956,-32,189,163
335258080,-2680,-432,14928,3,236,182
335261376,-2748,-460,14992,-12,212,210
335264846,-2708,-512,14900,-43,289,93
335268277,-2784,-580,15148,55,219,268
335271613,-2492,-476,14904,-134,248,87
335275083,-2988,-460,15240,32,280,211
335278466,-2696,-492,15052,6,99,261
335281676,-2600,-464,14880,-4,325,170
335285059,-2840,-424,15016,-73,180,210
335288564,-2756,-440,14972,-5,242,181
335291916,-2668,-492,14908,-83,224,162
335295407,-2784,-384,15056,1,215,146
335298679,-2848,-432,15108,54,280,217
335302062,-2636,-448,14740,48,150,242
335305445,-2548,-488,14964,-49,332,141
335308915,-2832,-284,14896,-118,153,197
335312472,-2824,-412,15048,-133,246,104
335316029,-2776,-468,15096,-40,270,188
335319523,-2732,-404,14940,-65,230,148
335322969,-2804,-476,15128,69,235,226
335326352,-2532,-540,14892,-13,214,173
335329822,-2760,-372,14932,-24,256,190
335333292,-2548,-472,14844,54,208,271
335336675,-2580,-480,14912,-71,257,96
335340059,-2976,-440,14984,24,213,278
335343466,-2472,-368,14680,-125,264,112
335346999,-3152,-404,15340,92,118,395
335350382,-2284,-512,14576,-146,267,68
335353852,-2972,-456,15248,-100,262,133
335357409,-2456,-608,14848,-7,265,206
335360792,-2796,-456,15044,-58,237,121
335364262,-2636,-396,14860,113,304,261
335367779,-2548,-456,14800,-117,246,90
335371202,-2636,-376,14912,73,149,350
335374585,-2424,-392,14732,-196,328,-16
335378142,-2976,-452,15288,22,44,369
335381438,-2568,-320,14712,-67,292,177
335384908,-2812,-492,15052,-52,148,209
335388382,-2496,-520,14712,-2,274,234
335391797,-2920,-428,15064,-59,237,173
335395256,-2544,-584,14924,17,239,166
335398615,-2896,-356,15168,-58,301,162
335402085,-2612,-396,14716,-9,178,175
335405468,-2764,-404,14984,-97,303,170
335408938,-2596,-536,14840,-97,225,158
335412408,-3028,-424,15252,-27,246,159
335415878,-2292,-508,14880,-73,285,164
335419373,-2880,-456,14932,-117,213,145
335422905,-2628,-492,14912,10,274,211
335426288,-2880,-400,15040,-32,211,124
335429758,-2656,-584,15040,50,196,223
335433141,-2664,-412,14920,-82,228,174
335436611,-2784,-532,14932,37,182,216
335439995,-2624,-476,14820,-105,372,86
335443489,-2912,-400,14932,-21,178,210
335446935,-2628,-496,14936,-86,267,173
335450405,-2708,-384,15016,-42,188,202
335453875,-2608,-524,14984,-28,246,155
335457345,-2676,-536,15088,-65,267,160
335460815,-2716,-476,14964,-4,161,205
335464198,-2596,-456,14896,-66,325,128
335467715,-2876,-580,15216,94,48,351
335470964,-2460,-472,14644,-8,373,63
335474261,-2896,-388,15088,-30,162,175
335477731,-2504,-352,14744,-98,257,119
335481201,-2948,-360,15088,-89,202,212
335484671,-2524,-484,14776,-108,173,147
335488228,-2928,-464,15156,-66,241,214
335491701,-2432,-488,14796,-112,229,82
335495211,-2868,-340,14964,62,240,260
335498551,-2488,-628,14964,22,296,130
335501934,-2588,-476,14816,-13,219,167
335505404,-2740,-484,14904,-102,326,45
335508874,-2604,-520,14800,-6,74,295
335512171,-2672,-384,14768,-211,409,-13
335515727,-2912,-460,15272,90,36,389
335519048,-2332,-512,14656,-163,431,-37
335522581,-3124,-440,15380,34,81,359
335525877,-2156,-448,14588,-69,293,85
335529260,-3080,-464,15060,-130,308,97
335532730,-2424,-592,14920,47,83,317
335536027,-2776,-424,14880,-20,343,153
335539497,-2664,-456,14916,-66,210,187
335542991,-2612,-472,14884,-12,292,129
335546437,-2800,-500,15080,-55,233,233
335549907,-2760,-496,14952,-60,205,127
335553377,-2856,-388,15164,-41,223,242
335556847,-2700,-508,14976,-115,240,75
335560317,-2836,-416,14980,4,248,222
335563613,-2652,-504,14936,-74,251,155
335567144,-2764,-516,14932,74,198,253
335570467,-2464,-508,14684,-82,376,71
335573850,-3004,-476,15248,-11,121,258
335577320,-2328,-380,14500,-19,246,241
335580790,-3040,-524,15320,-129,194,171
335584347,-2624,-460,14784,32,202,297
335587730,-2696,-444,15008,-164,372,100
335591287,-2796,-400,15100,-6,113,256
335594697,-2632,-504,14916,-19,350,124
335598175,-2784,-448,15128,-75,207,157
335601610,-2632,-432,15044,77,174,216
335604993,-2512,-468,14676,-86,296,98
335608376,-2796,-432,15016,-51,222,111
335611846,-2628,-348,14728,-93,257,255
335615316,-2840,-468,15296,-30,161,229
335618811,-2476,-628,14756,-60,294,187
335622256,-2864,-364,15000,-120,142,224
335625813,-2760,-432,14980,-23,183,186
335629283,-2664,-472,15048,-11,331,148
335632753,-2588,-580,15040,72,109,269
335636136,-2548,-308,14812,-58,350,96
335639520,-2740,-508,15084,39,188,232
335642927,-2524,-380,14804,-143,344,9
335646286,-3024,-320,15200,-56,177,270
335649756,-2420,-516,14852,-37,207,186
335653226,-2896,-356,14880,-79,248,265
335656696,-2688,-372,14876,-67,170,137
335660166,-2800,-388,15004,-33,249,223
335663636,-2748,-380,14804,2,212,166
335666981,-2620,-480,14840,13,280,168
335670316,-2756,-576,15032,2,291,177
335673612,-2452,-492,14728,-68,204,205
335677082,-2776,-484,15052,-119,335,80
335680552,-2660,-516,15052,-5,94,307
335683849,-2432,-484,14772,-47,316,145
335687319,-2888,-484,14924,-98,201,177
335690789,-2756,-452,15080,-95,275,123
335694282,-2820,-460,15172,-13,195,332
335697732,-2488,-484,14776,-29,255,86
335701147,-2880,-568,15224,117,231,275
335704582,-2460,-516,14616,-16,177,184
335708052,-3036,-356,15132,34,309,146
335711435,-2080,-616,14600,-101,293,145
335714992,-3048,-340,15096,-168,270,38
335718487,-2308,-560,14816,27,234,271
335721845,-2748,-456,14844,-214,252,26
335725315,-2628,-464,15072,129,128,345
335728785,-2552,-432,14764,-139,360,-15
335732342,-2768,-512,15012,135,79,366
335735725,-2372,-544,14792,-153,378,-5
335739195,-3064,-380,15416,143,-7,425
335742603,-2292,-444,14600,-162,411,14
335746049,-3084,-388,15336,59,106,340
335749432,-2440,-412,14728,-100,309,115
335752989,-2984,-372,15104,-32,210,246
335756459,-2504,-364,14688,-63,193,188
335759929,-2940,-408,15176,-58,287,158
335763399,-2584,-388,14868,-54,221,97
335766785,-3008,-432,15340,30,267,269
335770213,-2592,-496,14772,-27,282,141
335773635,-2808,-464,15052,37,175,225
335777018,-2564,-364,14728,-169,346,128
335780575,-2892,-444,15044,-132,222,92
335784045,-2640,-472,15192,-13,251,226
335787515,-2760,-488,14916,-31,79,304
335790898,-2392,-576,14756,-44,327,104
335794392,-2960,-436,15244,-63,208,222
335797838,-2648,-460,14880,106,173,281
335801343,-2736,-464,14988,-7,339,70
335804605,-2916,-484,15120,-6,97,284
335807901,-2440,-444,14784,-55,268,110
335811371,-2548,-472,14892,-131,279,107
335814928,-2784,-444,15012,-109,214,169
335818509,-2800,-584,15360,-7,252,235
335821868,-2416,-456,14804,-112,226,135
335825425,-2944,-428,15064,-50,233,192
335828895,-2552,-376,14996,-29,270,172
335832365,-2936,-432,14900,2,218,149
335835661,-2584,-440,14956,36,267,260
335839045,-2516,-456,14748,-36,223,92
335842452,-2744,-380,15084,-76,308,133
335845898,-2772,-452,14884,-52,168,238
335849368,-2664,-400,15092,-63,246,179
335852838,-2812,-316,14960,-22,216,276
335856308,-2692,-432,14788,-118,231,105
335859865,-2828,-424,15204,54,206,315
335863248,-2648,-464,14828,-79,229,140
335866721,-2596,-352,14940,10,299,195
335870149,-2888,-464,14992,-4,187,227
335873484,-2488,-484,14728,35,248,236
335876868,-2948,-440,14960,-63,266,201
335880338,-2648,-428,14864,-55,200,150
335883808,-2768,-352,14948,-48,261,225
335887278,-2704,-468,14988,-37,144,202
335890748,-2744,-484,14948,-49,237,147
335894241,-2728,-424,14952,-49,211,223
335897688,-2624,-604,15104,-5,204,174
335901074,-2524,-584,14896,5,280,227
335904402,-2812,-396,15016,-2,198,142
335907751,-2568,-500,14888,-44,294,125
335911221,-2808,-472,14872,-70,221,138
335914691,-2644,-368,14908,-79,260,126
335918185,-2964,-556,15216,-10,183,304
335921631,-2388,-404,14500,-177,204,100
335925187,-2964,-452,15316,-28,306,187
335928657,-2508,-468,14824,-108,279,157
335932214,-3068,-344,15268,20,235,167
335935597,-2460,-584,14872,1,315,191
335938894,-2840,-316,15080,-5,257,136
335942302,-2456,-532,14752,-51,262,227
335945747,-2664,-384,14908,-67,231,128
335949217,-2672,-600,14856,13,198,316
335952600,-2556,-572,15000,-116,288,84
335956070,-2692,-528,15164,9,135,307
335959367,-2496,-572,14740,-138,265,101
335962924,-2788,-588,15196,-17,130,236
335966397,-2664,-372,14904,-8,301,194
335969826,-2952,-360,15112,-47,206,132
335973247,-2560,-600,14784,105,185,317
335976717,-2456,-356,14864,-120,374,35
335980187,-2660,-440,14816,59,154,293
335983570,-2700,-476,14976,-115,308,170
335987127,-2308,-556,14844,73,43,340
335990423,-2788,-420,14880,-175,396,48
335993917,-2456,-516,14844,48,113,285
335997277,-2676,-436,14896,-170,379,17
336000747,-2688,-564,15024,133,121,393
336004220,-2308,-524,14636,-149,346,11
336007722,-3108,-416,15404,101,163,331
336011157,-2324,-396,14452,-113,189,125
336014713,-3080,-288,15244,10,281,133
336018121,-2320,-512,14928,-73,135,291
336021567,-3008,-340,15108,-15,142,270
336025037,-2360,-548,14696,-67,251,210
336028507,-2884,-348,15008,-60,162,201
336031977,-2428,-632,14764,14,273,238
336035360,-2840,-380,14932,-121,250,67
336038830,-2620,-472,14932,77,150,282
336042238,-2744,-516,14884,-77,268,106
336045683,-2716,-444,14940,-30,165,172
336049153,-2716,-368,14980,-82,318,173
336052623,-2836,-456,15040,-50,168,216
336056093,-2440,-388,14848,-58,237,196
336059563,-2788,-532,15100,-94,269,165
336063033,-2460,-424,14828,-106,212,124
336066593,-3044,-352,15140,57,273,252
336070075,-2352,-584,14864,105,36,334
336073356,-2576,-368,14864,-100,357,44
336076826,-2656,-504,14940,89,60,333
336080123,-2460,-452,14732,-98,326,49
336083506,-2704,-516,15004,-29,141,375
336086976,-2476,-456,14804,-136,345,-9
336090451,-3012,-416,15116,17,185,326
336093853,-2824,-444,14952,-112,271,45
336097299,-2632,-568,15012,1,177,185
336100596,-2788,-452,15120,-38,247,174
336104066,-2692,-536,14936,78,144,314
336107453,-2868,-452,15020,-56,307,202
336110958,-2476,-600,14952,29,127,225
336114302,-2640,-344,14776,-149,325,121
336117884,-2712,-448,14944,12,131,258
336121242,-2664,-452,15044,-61,260,117
336124712,-2688,-496,14940,-5,192,295
336128096,-2656,-448,14952,-97,284,55
336131479,-2724,-492,15116,10,229,279
336134862,-2560,-536,14788,-90,228,101
336138332,-2808,-368,14988,4,233,239
336141632,-2772,-496,15040,109,99,307
336145060,-2520,-592,14828,-18,279,152
336148482,-2808,-464,14912,-13,213,254
336151952,-2732,-392,14856,-120,264,82
336155422,-2716,-428,14900,63,184,379
336158805,-2592,-544,15020,-183,275,20
336162275,-3044,-504,15240,90,133,334
336165658,-2464,-448,14684,-96,281,94
336169066,-2912,-420,15164,42,134,269
336172425,-2492,-392,14688,-58,313,157
336175895,-2980,-352,15164,17,179,205
336179278,-2340,-448,14652,-119,355,89
336182748,-2984,-316,15216,-53,176,173
336186218,-2680,-404,14888,-68,235,186
336189688,-2684,-420,14856,-69,213,162
336193181,-2756,-520,14924,-33,196,172
336196628,-2540,-532,14888,-34,291,219
336200098,-2704,-452,15028,-62,215,152
336203568,-2660,-600,15244,103,226,291
336207038,-2872,-392,14848,-27,241,201
336210512,-2320,-460,14644,-58,231,143
336214013,-2968,-360,15108,-20,303,203
336217473,-2736,-484,14896,-39,167,243
336220918,-2632,-568,15144,-46,275,218
336224388,-2664,-420,14972,-145,179,169
336227945,-2592,-472,15052,-43,255,161
336231415,-2776,-456,14932,8,174,226
336234711,-2624,-424,14912,10,255,152
336238095,-2772,-544,15036,38,254,251
336241481,-2548,-472,14856,-27,215,137
336244996,-2644,-428,14800,-15,258,189
336248418,-2560,-508,14852,-81,221,168
336251888,-2964,-352,15044,-95,273,135
336255358,-2648,-548,14884,-81,318,157
336258828,-2808,-424,14972,-103,168,184
336262385,-2772,-456,15088,62,208,222
336265768,-2436,-496,14696,-79,232,134
336269262,-2732,-368,14944,97,100,309
336272621,-2572,-512,15204,-76,346,147
336276091,-2696,-344,15036,11,136,242
336279474,-2312,-500,14716,-74,419,35
336282858,-3040,-340,15256,-3,109,290
336286241,-2432,-488,14864,-119,294,86
336289711,-3104,-424,15280,-48,170,270
336293204,-2280,-568,14772,-91,229,85
336296564,-3104,-324,15196,-87,286,168
336300034,-2424,-504,14868,-95,248,49
336303417,-3068,-312,15424,2,223,219
336306714,-2232,-612,14684,39,184,233
336310097,-2968,-368,15152,-12,185,181
336313571,-2476,-436,14852,-67,287,137
336317080,-2552,-448,14808,19,82,312
336320334,-2536,-548,14752,-209,434,-19
336323890,-3168,-412,15360,53,34,415
336327187,-2344,-604,14648,-119,311,46
336330657,-3044,-380,15224,-65,203,215
336334127,-2408,-584,14764,-46,221,108
336337597,-2948,-424,15156,-4,304,163
336340980,-2588,-512,14988,28,204,186
336344388,-2544,-412,14632,-46,289,173
336347833,-2756,-484,14936,-63,272,146
336351303,-2500,-480,14684,-36,156,274
336354773,-2780,-348,14928,-91,257,230
336358243,-2652,-512,14920,14,110,270
336361627,-2804,-452,14964,-58,325,186
336365097,-2640,-420,14892,-48,222,162
336368615,-2668,-400,14916,-32,197,205
336372037,-2644,-420,15032,-47,305,184
336375507,-2792,-400,14992,8,223,183
336378803,-2632,-504,14900,-35,333,135
336382273,-2612,-500,14916,-41,216,185
336385743,-2992,-444,15176,41,87,318
336389040,-2344,-468,14752,-162,344,86
336392534,-3020,-408,15188,-33,137,210
336395980,-2440,-568,14700,-126,345,90
336399450,-2936,-308,15128,4,160,250
336402746,-2408,-508,14860,24,305,115
336406129,-2860,-600,15064,-61,195,219
336409599,-2724,-396,15104,40,154,247
336412983,-2592,-584,14920,-127,344,38
336416456,-2840,-356,14952,-32,135,243
336419964,-2656,-424,14824,-24,296,143
336423393,-2844,-472,15216,-36,105,259
336426863,-2480,-572,14536,-61,213,212
336430333,-2804,-464,15148,-124,306,111
336433889,-2416,-556,14756,-14,156,202
336437359,-2816,-408,14968,-43,364,103
336440829,-2464,-536,14888,49,175,191
336444237,-2760,-496,14940,-58,283,147
336447683,-2704,-356,14896,-9,264,222
336451066,-2496,-556,14932,-64,257,69
336454449,-2868,-412,15000,-42,205,345
336457919,-2680,-444,14852,-124,298,19
336461389,-2844,-528,15324,69,122,371
336464772,-2552,-372,14768,-157,353,38
336468291,-2960,-556,15280,-22,166,225
336471712,-2572,-416,14916,44,290,190
336475096,-2680,-516,14992,-97,245,90
336478479,-2916,-404,15164,83,174,285
336481862,-2408,-576,14748,-100,281,125
336485419,-2920,-484,15208,-43,213,152
336488889,-2460,-508,14780,-81,316,169
336492383,-2736,-360,14884,-124,204,132
336495916,-2460,-536,14732,-12,235,272
336499386,-2756,-384,14916,-130,236,95
336502856,-2700,-524,14840,11,157,247
336506239,-2704,-384,14860,-90,319,89
336509622,-2920,-476,15112,81,111,265
336513005,-2660,-480,14916,-115,412,28
336516479,-2656,-476,14996,-13,138,231
336519987,-2800,-272,15008,-209,419,-69
336523502,-2932,-496,15276,64,138,379
336526885,-2576,-296,14624,-101,258,109
336530442,-2848,-428,15288,38,245,235
336533825,-2480,-468,14820,-65,185,204
336537295,-2776,-452,14984,-51,319,88
336540679,-2808,-420,14932,-19,149,276
336544173,-2516,-548,14944,29,229,170
336547532,-2768,-436,14900,2,261,238
336550828,-2548,-556,14916,-133,300,-14
336554385,-3252,-216,15212,29,129,380
336557768,-2188,-612,14636,-128,247,68
336561238,-3216,-336,15084,-86,240,215
336564708,-2340,-464,14404,-111,308,120
336568326,-2896,-380,15164,-18,129,235
336571735,-2544,-500,14764,51,248,238
336575118,-2624,-552,14820,-81,248,97
336578502,-2980,-444,15296,175,90,416
336581885,-2320,-496,14560,-148,289,78
336585355,-2872,-412,15132,27,159,205
336588738,-2748,-464,14988,-152,315,105
336592319,-2664,-380,14912,-29,140,191
336595765,-2592,-524,14920,-66,274,190
336599235,-2928,-364,15132,-44,221,217
336602705,-2572,-424,14940,-35,182,182
336606175,-2748,-492,15196,-42,341,110
336609645,-2480,-504,14908,16,153,262
336613028,-2672,-492,14952,-81,373,56
336616415,-2812,-384,14980,3,146,274
336619731,-2604,-360,14804,-96,346,78
336623126,-3072,-388,15096,-33,154,234
336626561,-2444,-500,14732,-59,200,167
336630031,-2736,-452,15008,-125,317,154
336633588,-2884,-388,15068,-64,122,219
336637058,-2724,-576,14900,-13,285,192
336640528,-2868,-480,15092,32,177,246
336643936,-2524,-484,14936,0,203,171
336647208,-2820,-304,14884,-43,267,210
336650678,-2360,-488,14768,-110,252,54
336654148,-3184,-224,15320,59,151,350
336657531,-2176,-468,14488,-73,249,132
336661001,-3116,-488,15368,-110,281,126
336664558,-2152,-560,14500,-112,255,103
336668163,-3248,-312,15432,1,38,351
336671324,-2148,-604,14640,26,357,131
336674707,-2932,-384,15352,-86,174,153
336678177,-2700,-372,14916,64,296,188
336681561,-2920,-328,14884,-51,181,180
336685031,-2464,-472,14752,10,248,223
336688414,-2632,-380,14944,-115,313,141
336691995,-2840,-324,14880,-43,190,220
336695441,-2572,-512,14936,-24,271,208
336698911,-2656,-448,14996,-96,184,144
336702381,-2860,-336,15144,7,159,222
336705677,-2624,-488,14956,-51,218,199
336709147,-2664,-476,14744,-7,226,147
336712530,-2756,-512,15092,49,272,249
336715914,-2396,-440,14628,-63,247,107
336719407,-3104,-352,15200,34,206,272
336722770,-2360,-448,14420,-73,227,151
336726272,-2888,-488,15052,-46,184,188
336729707,-2632,-396,14784,-36,215,273
336733177,-2624,-424,14812,-113,212,134
336736734,-2728,-428,15144,93,222,277
336740117,-2516,-556,14984,-55,243,141
336743611,-2672,-384,14772,51,191,231
336746970,-2692,-484,14996,-25,381,86
336750353,-2556,-428,14768,57,127,265
336753737,-2568,-512,14976,-120,302,172
336757293,-2800,-396,14872,-145,190,218
336760850,-2584,-532,15052,-1,210,244
336764233,-2724,-676,15212,-96,281,154
336767752,-2664,-452,14892,26,109,288
336771087,-2408,-516,14816,-91,374,68
336774470,-3000,-452,14996,67,125,271
336777853,-2488,-616,14896,24,287,124
336781236,-2664,-444,15176,-39,191,196
336784706,-2608,-564,14836,-59,274,141
336788176,-2788,-332,14924,-132,330,110
336791737,-2936,-396,15216,35,69,331
336795054,-2344,-656,14788,-92,372,72
336798413,-2924,-384,15168,-109,153,240
336801970,-2576,-448,14900,24,207,206
336805353,-2772,-476,15000,-114,283,142
336808910,-2748,-432,15044,0,130,238
336812206,-2708,-444,15084,-22,401,56
336815589,-2876,-308,14992,83,12,382
336818909,-2440,-512,14760,-107,340,5
336822269,-2844,-444,15144,-40,173,276
336825739,-2644,-340,14836,10,205,194
336829157,-2552,-452,14780,-94,313,177
336832592,-2724,-328,14888,-67,218,113
336836062,-2548,-512,14932,0,280,192
336839359,-2660,-508,14976,-35,162,180
336842853,-2684,-488,15052,20,209,222
336846212,-2568,-596,14816,7,235,189
336849509,-2760,-460,14964,-4,285,87
336852805,-2588,-472,15052,-64,303,163
336856249,0,0,0,-66,208,127
336858791,-2784,-432,14892,-65,229,270
336862261,-2764,-392,15016,-95,226,98
336865644,-2648,-628,15024,-59,236,263
336869162,-2880,-464,14904,-111,206,140
336872671,-2676,-512,14984,25,200,196
336876054,-2632,-504,15048,-61,293,118
336879524,-2820,-432,15100,-9,247,148
336882907,-2452,-488,14784,19,285,235
336886291,-2572,-424,14872,-122,230,82
336889761,-2808,-300,14924,-48,221,248
336893255,-2744,-476,15012,-80,225,127
336896701,-2684,-412,14988,16,114,260
336900084,-2636,-468,14880,-214,375,54
336903554,-2888,-416,15092,84,104,317
336906937,-2540,-480,15000,-81,337,77
336910320,-2812,-420,15092,4,119,243
336913617,-2472,-460,14768,-70,288,101
336917110,-2752,-548,15176,62,208,290
336920470,-2500,-500,14740,-86,287,55
336923853,-2728,-572,15096,10,242,246
336927237,-2668,-520,14880,-121,177,177
336930828,-2824,-272,14764,-97,238,186
336934263,-2612,-596,15088,-33,163,228
336937733,-2620,-484,14968,-76,216,143
336941203,-2840,-524,15056,-23,319,155
336944723,-2692,-492,14932,52,135,264
336948057,-2768,-372,14920,-30,311,145
336951527,-2636,-552,14984,-36,186,218
336954997,-2532,-560,14980,-150,337,-21
336958553,-2928,-324,15056,5,202,277
336961850,-2540,-604,15072,-53,173,183
336965320,-2776,-476,15048,-59,299,178
336968814,-2668,-520,15064,14,144,221
336972173,-2596,-480,14992,-56,314,129
336975643,-2804,-612,15164,-29,253,161
336979113,-2584,-424,14900,24,218,223
336982496,-2724,-312,14932,6,261,217
336985793,-2580,-464,14920,-23,230,106
336989263,-2716,-512,15108,-14,349,147
336992757,-2496,-488,14800,-75,161,229
336996203,-2844,-444,15128,-81,326,66
336999586,-2772,-452,15104,-6,158,307
337002969,-2604,-460,14824,-167,317,40
337006439,-2968,-412,15292,84,208,321
337009823,-2572,-344,14748,-65,243,62
337013206,-2908,-540,15080,4,295,192
337016506,-2484,-456,14696,-66,228,119
337019996,-2884,-508,15076,-16,281,194
337023442,-2604,-728,14884,-38,292,190
337026912,-2840,-480,15084,-99,205,145
337030386,-2524,-480,14964,-1,301,187
337033801,-2708,-432,15100,-103,205,170
337037322,-2712,-612,15052,40,204,227
337040706,-2652,-584,14908,-127,286,103
337044287,-2768,-468,15036,18,134,225
337047646,-2792,-472,15044,-22,321,146
337051116,-2660,-536,14944,75,57,309
337054412,-2544,-352,14732,-48,332,95
337057795,-2804,-460,14980,-37,154,244
337061265,-2564,-588,14844,-117,272,64
337064735,-2988,-504,15252,-46,176,295
337068308,-2268,-532,14756,-107,254,81
337071675,-3000,-360,15060,-46,315,168
337075145,-2480,-496,14968,69,65,324
337078442,-2556,-480,14720,-101,350,59
337081912,-2764,-524,15152,81,98,345
337085208,-2544,-468,14696,-28,275,54
337088592,-2688,-568,15076,-51,261,208
337092086,-2636,-312,14720,-69,223,170
337095532,-2824,-424,15168,-5,232,256
337098915,-2580,-404,14864,-56,123,249
337102385,-2708,-440,15028,-80,258,98
337105768,-2624,-504,14828,-4,210,289
337109151,-2656,-608,14972,-53,208,126
337112621,-2592,-568,14840,52,253,241
337116005,-2716,-376,14956,-32,169,198
337119498,-2828,-320,14908,21,242,224
337122858,-2500,-528,14680,-64,219,169
337126328,-3036,-468,15188,-15,169,255
337129798,-2152,-512,14956,-67,245,228
337133268,-3036,-340,15184,-82,92,291
337136690,-2420,-520,14728,8,275,194
337139948,-2892,-452,15068,-115,181,123
337143529,-2616,-408,14964,41,222,242
337146888,-2676,-496,14708,-50,250,102
337150358,-2608,-436,14956,55,104,299
337153741,-2704,-456,14808,-67,359,128
337157211,-2636,-324,14952,-93,176,182
337160681,-2704,-468,14892,-85,319,194
337164151,-2732,-480,15156,-61,190,218
337167669,-2600,-480,14820,63,67,384
337170917,-2552,-416,14644,-212,393,-58
337174474,-2468,-556,14944,63,93,344
337177771,-2632,-452,15024,-53,344,102
337181241,-2360,-484,14748,1,162,218
337184537,-2912,-348,15000,-60,332,133
337188007,-2576,-480,14780,-113,251,142
337191567,-3156,-368,15312,-79,243,112
337195058,-2388,-660,14816,-21,300,242
337198504,-3080,-396,15048,-192,262,15
337201974,-2624,-564,14924,58,183,198
337205357,-2892,-424,15180,-223,319,31
337208827,-2888,-536,15324,137,91,385
337212210,-2504,-484,14660,-156,433,15
337215680,-3008,-428,15360,39,116,302
337219087,-2432,-436,14760,-37,321,125
337222534,-2812,-444,15176,-76,212,103
337226004,-2716,-396,14872,-49,182,255
337229474,-2876,-416,14884,-157,343,60
337232944,-2888,-580,15308,66,89,319
337236244,-2352,-536,14712,-141,368,92
337239745,-3032,-476,15368,-61,142,199
337243205,-2616,-556,14792,-34,269,167
337246650,-2824,-456,15284,5,160,200
337249947,-2364,-644,14672,-31,320,9
337253243,-2932,-476,15128,67,167,307
337256626,-2212,-548,14748,-64,251,154
337260096,-2864,-408,15184,-23,218,298
337263566,-2664,-404,14880,-115,234,58
337267085,-2612,-388,14924,45,169,306
337270420,-2704,-468,15104,-90,185,193
337273890,-2572,-444,14864,-43,220,141
337277360,-2972,-504,15224,-27,305,217
337280830,-2388,-396,14804,-128,284,21
337284300,-3068,-524,15388,84,222,289
337287683,-2104,-688,14588,-31,237,111
337291153,-3228,-428,15452,6,134,288
337294474,-2388,-416,14740,27,147,319
337297833,-2640,-492,15164,-107,236,96
337301303,-2528,-484,14868,41,185,341
337304686,-2764,-492,14900,-157,248,46
337308156,-2588,-596,14844,-16,249,208
337311626,-3016,-440,15212,-45,198,155
337315096,-2604,-452,14836,43,201,203
337318502,-2844,-384,15048,38,243,218
337321862,-2532,-472,14712,-105,232,100
337325419,-2748,-376,14896,-99,303,152
337328889,-2696,-316,14792,-160,193,179
337332446,-2896,-408,15072,-74,278,108
337335916,-2464,-420,14764,5,227,267
337339212,-2696,-392,14980,-139,257,69
337342725,-2808,-468,15128,67,208,278
337346066,-2752,-464,14924,-75,241,102
337349536,-2680,-548,15084,17,238,207
337352919,-2560,-516,14788,-6,250,221
337356302,-2708,-452,14940,-65,270,100
337359772,-2612,-552,15080,25,300,229
337363155,-2712,-560,15068,-71,137,220
337366629,-2608,-444,14952,-28,223,194
337370144,-2600,-468,15076,-120,232,162
337373652,-2616,-520,14972,-60,216,178
337377122,-2900,-460,15148,-40,293,157
337380592,-2708,-520,14968,-8,179,190
337383975,-2968,-292,15180,31,258,197
337387359,-2432,-592,14972,80,151,233
337390742,-2604,-508,14676,-142,287,68
337394236,-2672,-292,14700,13,148,336
337397595,-2480,-392,14836,-116,239,57
337401065,-2712,-528,15044,97,144,422
337404448,-2420,-412,14652,-186,303,-7
337407918,-2936,-372,15180,151,132,379
337411388,-2252,-552,14680,-100,247,114
337414945,-2740,-380,15072,40,151,243
337418353,-2512,-492,14864,-55,309,126
337421798,-2864,-348,15136,43,69,266
337425095,-2344,-516,14456,-45,360,91
337428478,-3036,-476,15328,-49,160,265
337431948,-2524,-468,15020,-26,296,165
337435418,-2928,-416,15048,-91,172,221
337438888,-2600,-524,14788,-91,256,103
337442385,-2900,-364,15044,-5,201,305
337445776,-2452,-392,14784,-73,259,67
337449125,-2976,-420,15280,45,277,220
337452508,-2360,-456,14772,-76,254,117
337455978,-2988,-444,15056,-58,289,105
337459448,-2552,-420,14996,-63,280,143
337462918,-2920,-312,14876,-89,234,154
337466391,-2636,-548,15036,34,291,231
337469820,-2700,-488,14744,-133,171,112
337473328,-2808,-304,14928,-67,270,216
337476798,-2472,-500,14660,-76,219,175
337480268,-2816,-532,15000,-75,270,128
337483738,-2612,-544,14888,16,287,200
337487121,-2788,-548,15032,-3,148,250
337490504,-2492,-288,14716,-72,366,112
337493999,-2708,-448,14904,3,160,234
337497271,-2592,-520,14872,-135,289,190
337500828,-2788,-320,14956,-21,204,221
337504298,-2724,-512,15132,-45,185,186
337507768,-2576,-412,14812,-68,255,236
337511238,-2804,-468,15060,-34,208,149
337514708,-2448,-552,14796,40,247,222
337518115,-2988,-380,14980,-90,243,64
337521474,-2724,-516,15112,142,156,289
337524944,-2296,-388,14652,-194,386,18
337528414,-3152,-360,15292,28,51,348
337531711,-2380,-532,14840,-102,396,74
337535181,-3188,-324,15172,-59,110,238
337538651,-2360,-508,14616,-78,224,142
337542144,-2928,-312,15136,-174,274,128
337545681,-2492,-324,14708,35,130,240
337549095,-2696,-472,14988,-121,405,43
337552531,-2684,-380,14956,61,146,243
337555914,-2792,-512,15096,16,229,185
337559297,-2556,-432,14760,-92,337,75
337562680,-2964,-348,15080,-53,170,257
337566150,-2332,-628,14896,-106,271,128
337569768,-3116,-344,15216,-52,106,289
337573177,-2204,-560,14504,-107,341,46
337576647,-3156,-400,15416,-31,157,213
337580117,-2480,-472,14696,134,202,289
337583587,-2876,-472,15304,-74,349,24
337586970,-2840,-316,14964,65,101,315
337590354,-2336,-532,14632,-128,419,-11
337593935,-2784,-432,15056,22,76,292
337597207,-2400,-468,14720,-176,387,-19
337600764,-2968,-456,15360,56,71,386
337604060,-2280,-492,14632,29,212,182
337607443,-2860,-512,15312,-117,286,150
337611000,-2560,-376,14868,29,95,289
337614297,-2712,-476,14936,-7,316,169
337617704,-2564,-520,15152,10,140,224
337621063,-2816,-416,14952,107,183,243
337624533,-2472,-384,14720,-57,283,118
337628003,-2868,-392,15156,-119,293,72
337631473,-2468,-512,14868,-53,255,241
337634943,-2916,-400,15164,-78,195,143
337638413,-2500,-524,14800,-37,219,239
337641906,-2892,-336,14952,-190,275,32
337645353,-2572,-416,14964,66,97,265
337648653,-2608,-372,14908,-109,318,133
337652241,-2420,-456,14732,67,184,195
337655590,-2824,-472,15024,-54,389,75
337658973,-2692,-376,14892,-8,168,249
337662356,-2460,-388,14664,-173,345,32
337665826,-3104,-360,15252,-89,221,156
337669344,-2432,-496,14852,38,126,231
337672679,-2612,-400,14924,-180,299,74
337676149,-2884,-472,15096,-20,106,284
337679619,-2408,-536,14928,-69,358,92
337683003,-2980,-264,15084,20,116,323
337686386,-2352,-484,14708,-47,336,65
337689774,-3228,-328,15308,26,164,254
337693177,-2268,-568,14656,-99,297,60
337696536,-3168,-312,15096,-89,322,118
337700006,-2644,-572,14988,-43,189,178
337703476,-2928,-368,15212,-61,274,173
337706946,-2636,-512,14836,-92,206,192
337710416,-2692,-540,15100,-73,266,127
337713886,-2592,-476,14904,-75,319,144
337717380,-2848,-420,15164,78,132,264
337720739,-2400,-504,14752,26,346,162
337724122,-2804,-456,15192,-29,229,156
337727592,-2564,-424,14668,4,236,231
337730889,-2636,-300,14828,-185,275,83
337734359,-2668,-384,15032,25,84,353
337737655,-2564,-420,14884,-102,331,61
337741125,-2620,-532,14984,27,90,294
337744445,-2588,-536,14952,-85,337,124
337747892,-2860,-392,15160,30,190,234
337751275,-2268,-540,14844,-51,284,135
337754780,-2996,-400,15460,67,199,319
337758128,-2084,-444,14420,-44,243,101
337761598,-3184,-356,15552,-102,295,146
337765155,-2152,-444,14340,-55,165,176
337768673,-3100,-456,15428,-160,415,19
337772095,-2324,-552,14748,72,76,343
337775391,-2680,-332,14900,-209,367,-28
337778948,-2968,-472,15092,23,181,338
337782331,-2636,-412,14924,-94,245,75
337785715,-2948,-440,14996,40,213,270
337789098,-2624,-496,14992,-5,251,130
337792506,-2780,-376,14932,20,196,235
337795864,-2568,-376,14732,-146,348,114
337799421,-2928,-348,15056,-116,220,124
337802978,-2632,-320,15012,38,205,263
337806361,-2520,-428,14884,-90,157,155
337809831,-2784,-328,15064,-34,188,245
337813301,-2532,-524,15092,-33,257,201
337816796,-2724,-492,15004,1,182,196
337820068,-2636,-528,15132,9,293,211
337823364,-2644,-376,14812,-4,159,165
337826747,-2688,-404,14904,-21,248,203
337830217,-2912,-452,15256,-87,211,115
337833687,-2660,-644,14868,-94,286,89
337837071,-3040,-420,15124,-23,211,283
337840541,-2388,-512,14936,-19,146,305
337844034,-2744,-416,14944,-151,338,91
337847481,-2880,-436,15272,-20,89,248
337850864,-2444,-452,14636,-34,275,136
337854337,-2860,-324,15288,-37,242,124
337857839,-2604,-420,14644,54,201,218
337861187,-2556,-512,14840,-91,367,101
337864657,-2788,-336,14920,-38,193,186
337868176,-2672,-500,14972,-1,283,223
337871510,-2768,-424,14924,-87,130,212
337874980,-2648,-440,14860,-57,230,194
337878450,-2720,-556,15104,-72,246,159
337881920,-2636,-464,14988,33,138,278
337885304,-2672,-508,14728,-62,307,155
337888774,-3012,-404,15240,15,143,229
337892181,-2284,-496,14516,11,284,195
337895540,-3024,-368,15168,-78,250,141
337899010,-2760,-420,14960,-49,183,201
337902480,-2564,-464,14824,-51,322,171
337905950,-2868,-324,15044,-62,160,197
337909420,-2648,-520,15040,-62,293,156
337912890,-2772,-372,14912,-58,149,218
337916364,-2584,-544,14992,-8,258,157
337919768,-2812,-440,15056,-77,259,202
337923213,-2496,-544,14752,2,182,177
337926510,-2724,-492,15036,7,290,214
337929806,-2588,-536,14932,-40,190,146
337933276,-2720,-520,14880,-67,272,201
337936746,-2688,-332,14860,-69,214,209
337940216,-2756,-424,15132,-94,272,139
337943710,-2704,-536,14912,11,204,275
337947070,-2452,-524,14756,-119,240,123
337950626,-3064,-592,15184,70,178,310
337954010,-2300,-548,14652,-27,204,160
337957483,-2964,-404,15288,35,197,217
337960898,-2504,-384,14652,-43,233,198
337964333,-2728,-376,14972,-102,264,39
337967852,-2880,-544,15092,107,183,299
337971273,-2488,-500,14844,-166,264,75
337974743,-2872,-520,15108,55,166,345
337978126,-2484,-444,14772,-139,263,57
337981596,-2788,-528,15204,71,167,311
337984979,-2616,-444,14688,-39,268,184
337988449,-2740,-516,15096,-20,201,204
337991944,-2452,-472,14748,75,213,291
337995303,-2664,-364,14788,-168,289,88
337998773,-2460,-504,14764,70,169,289
338002156,-2664,-540,15068,-215,338,62
338005626,-2796,-436,15016,51,93,280
338008922,-2604,-436,14852,-92,342,130
338012392,-2768,-432,15044,-66,178,203
338015862,-2676,-528,14912,0,273,164
338019183,-2732,-492,15048,-17,180,176
338022629,-2580,-480,14944,-36,237,165
338026099,-2832,-400,14916,-40,263,139
338029569,-2692,-448,14872,-3,195,139
338032952,-2552,-452,14824,-92,327,184
338036422,-2844,-368,15120,-31,154,250
338039892,-2432,-548,14704,-5,217,206
338043299,-2800,-352,15008,-120,293,166
338046832,-2640,-436,14956,107,65,342
338050215,-2624,-476,14892,-60,390,100
338053685,-2704,-500,14972,40,100,265
338057069,-2544,-628,14916,-16,353,150
338060542,-2476,-568,14784,-54,166,244
338064043,-2796,-440,14876,-85,307,44
338067494,-2520,-580,14824,-103,300,171
338070949,-2816,-372,15208,-106,210,133
338074505,-2668,-520,14900,35,220,314
338077889,-2524,-508,15048,-120,248,93
338081359,-2840,-524,14996,69,139,317
338084742,-2412,-456,14576,-139,307,79
338088212,-3024,-420,15328,59,100,293
338091599,-2388,-536,14564,-60,385,105
338095090,-3028,-312,15232,17,80,310
338098362,-2452,-460,14872,40,305,151
338101745,-2536,-444,14712,-145,219,134
338105302,-2844,-400,15280,34,180,227
338108685,-2588,-480,14744,-91,203,249
338112155,-2736,-472,14980,-89,191,149
338115625,-2576,-476,14956,2,257,258
338118946,-2780,-416,14848,-56,224,127
338122391,-2456,-500,14732,11,257,190
338125775,-2964,-400,15244,-11,232,149
338129245,-2556,-524,14800,-38,217,171
338132715,-2900,-420,15208,-111,328,97
338136185,-2816,-476,14980,-27,87,273
338139568,-2684,-500,15076,-33,313,163
338143061,-2528,-372,15120,-102,213,151
338146595,-2676,-468,14984,-24,225,207
338150065,-2524,-380,14884,-94,326,156
338153535,-2688,-392,14896,40,186,198
338156918,-2692,-452,14984,20,272,219
338160301,-2652,-420,14752,17,152,189
338163688,-2520,-560,14792,-49,338,100
338167225,-2824,-252,15104,-47,153,259
338170624,-2512,-448,14736,-80,235,183
338174094,-3068,-528,15280,5,204,285
338177391,-2424,-360,14656,-43,175,222
338180861,-2808,-432,15104,-96,390,79
338184244,-2804,-472,14964,10,102,291
338187627,-2444,-436,14824,-81,334,54
338191011,-3060,-372,15392,106,128,368
338194505,-2120,-480,14516,-82,271,86
338197864,-2840,-412,15156,-31,307,177
338201334,-2452,-492,14752,-46,213,132
338204804,-2968,-404,15248,-48,274,241
338208274,-2444,-384,14864,-28,193,181
338211744,-2672,-464,14964,-86,232,225
338215214,-2804,-496,15040,-34,269,244
338218708,-2464,-612,15040,1,195,144
338221980,-2864,-432,14992,39,244,225
338225364,-2424,-488,14680,-23,203,187
338228834,-2784,-400,14940,-62,220,142
338232304,-2600,-660,15056,103,173,261
338235774,-2748,-360,14624,-181,296,69
338239244,-2768,-492,15036,34,210,309
338242651,-2272,-452,14792,-131,238,73
338246097,-2864,-536,15200,51,166,360
338249480,-2416,-424,14672,-118,275,77
338252950,-2852,-488,15176,75,106,314
338256333,-2396,-576,14836,-38,293,149
338259803,-2972,-372,15088,-30,111,235
338263273,-2336,-452,14704,-7,284,195
338266660,-2880,-416,15124,-92,228,77
338270105,-2344,-616,14612,1,223,203
338273336,-2768,-360,15028,-144,339,38
338276806,-2736,-488,15160,47,85,330
338280103,-2664,-480,14932,-243,400,12
338283573,-2920,-516,15312,64,57,323
338286869,-2340,-484,14644,-60,311,110
338290339,-3068,-524,15320,-18,164,191
338293834,-2388,-536,14836,9,243,166
338297106,-2724,-372,14984,-104,343,71
338300576,-2816,-448,14956,-27,208,189
338304046,-2664,-488,15028,-98,346,89
338307429,-2764,-428,15144,-17,114,260
338310899,-2592,-524,14936,-94,230,94
338314282,-2832,-392,14940,-24,200,256
338317777,-2488,-468,14876,-61,229,110
338321222,-2952,-332,15168,4,268,259
338324519,-2404,-492,14828,37,150,206
338327902,-2724,-416,15088,94,242,243
338331285,-2340,-392,14476,-78,219,163
338334755,-2920,-340,15156,-31,158,235
338338225,-2152,-584,14744,-71,245,177
338341699,-2944,-248,15128,-65,149,214
338345214,-2440,-504,14896,11,227,267
338348549,-2716,-412,14980,-156,234,94
338352019,-2596,-564,14988,52,192,276
338355402,-2868,-360,14956,-53,267,120
338358872,-2520,-488,14756,71,164,252
338362255,-2816,-332,15044,-77,332,124
338365725,-2488,-480,14784,-83,163,167
338369218,-2832,-248,15008,-70,329,155
338372700,-2724,-516,15024,-26,176,239
338376135,-2820,-340,14916,-76,264,119
338379605,-2824,-524,15088,6,216,283
338382902,-2512,-488,14948,-66,170,147
338386372,-2696,-412,15104,-128,384,92
338389842,-2628,-496,14968,39,107,303
338393249,-2732,-404,14996,-111,314,77
338396695,-2608,-520,14872,25,273,180
338400078,-2844,-456,14896,-85,272,129
338403548,-2796,-540,15092,19,247,216
338406931,-2672,-484,15000,-152,227,83
338410401,-3052,-320,15108,40,179,334
338413785,-2468,-536,14864,-146,305,94
338417279,-2800,-452,15080,-32,214,210
338420725,-2540,-484,14604,-61,311,154
338424195,-2916,-280,15180,-68,231,133
338427665,-2440,-488,14896,43,259,182
338431048,-2652,-432,14916,-85,208,135
338434518,-2648,-400,14980,8,189,221
338437814,-2652,-388,14840,-97,340,123
338441288,-2824,-300,14996,-99,189,148
338444803,-2628,-344,14688,-12,221,256
338448224,-2764,-400,15112,-88,186,158
338451694,-2400,-540,14620,-88,215,165
338455164,-2864,-532,15080,-77,341,44
338458548,-2272,-532,14704,22,152,251
338461931,-3080,-388,15148,112,306,243
338465401,-2300,-524,14748,-96,286,51
338468807,-2936,-288,15268,75,183,272
338472167,-2248,-464,14568,-138,247,72
338475672,-2964,-492,15088,-17,150,235
338479107,-2536,-460,14916,-66,256,180
338482577,-2844,-484,15008,10,104,275
338485961,-2564,-488,14908,-11,288,202
338489431,-2604,-480,15156,-35,256,121
338492925,-2672,-408,14972,51,177,264
338496284,-2480,-448,14832,-70,362,88
338499667,-2776,-492,14924,23,124,247
338503050,-2576,-432,14776,-28,335,149
338506520,-2760,-284,14924,-145,187,124
338510077,-2724,-424,15140,-68,247,204
338513547,-2740,-480,15040,-36,184,216
338517042,-2604,-456,15056,5,220,207
338520314,-2668,-464,15100,-44,293,205
338523784,-2664,-504,14988,42,205,163
338527167,-2696,-528,14996,43,251,181
338530550,-2368,-440,14600,-32,180,222
338534020,-2812,-516,15108,-90,330,106
338537490,-2272,-412,14492,-101,263,162
338541047,-3116,-420,15456,-76,240,140
338544577,-2300,-464,14608,28,240,252
338547900,-2664,-412,15152,-186,313,-4
338551370,-2360,-520,14656,39,121,320
338554753,-2892,-356,15064,-153,289,63
338558223,-2676,-544,14988,33,155,250
338561607,-2884,-400,15016,-65,356,123
338565077,-2568,-492,14888,13,222,137
338568483,-2628,-360,14668,-53,262,245
338571930,-2828,-344,14864,-142,276,28
338575403,-2500,-380,14792,-8,165,292
338578818,-2688,-516,14968,-133,292,121
338582340,-2724,-584,15120,22,87,294
338585636,-2524,-464,14824,-140,350,119
338589193,-2936,-468,15128,-7,167,227
338592601,-2564,-496,14952,21,255,220
338595960,-2572,-516,14964,-85,257,77
338599343,-2648,-452,14964,72,122,300
338602726,-2412,-540,14848,-148,358,56
338606196,-2992,-316,15172,33,74,349
338609493,-2416,-472,14664,-132,378,80
338612963,-2976,-436,15216,27,84,333
338616263,-2480,-380,14580,-57,331,84
338619667,-2968,-508,15204,-82,182,147
338623112,-2508,-364,14824,-48,195,202
338626582,-2900,-404,15208,-90,315,88
338629966,-2460,-472,14800,34,166,203
338633349,-2956,-332,15096,-70,392,68
338636732,-2568,-468,15032,101,124,266
338640202,-2848,-592,15104,-72,334,92
338643610,-2776,-452,15024,-4,91,326
338646882,-2616,-536,14800,-96,196,134
338650352,-2820,-528,15092,-47,276,171
338653822,-2708,-340,14832,-59,170,204
338657292,-2856,-472,15084,37,334,156
338660675,-2424,-488,14752,-51,107,263
338664145,-3008,-464,14936,18,208,198
338667575,-2488,-580,14800,-20,235,250
338670998,-2712,-300,14804,-122,221,81
338674468,-2576,-572,15016,43,295,249
338677852,-2680,-316,14864,-127,210,187
338681443,-2744,-484,15056,-8,168,271
338684792,-2592,-384,14852,-106,322,137
338688348,-2804,-524,15400,-54,150,171
338691843,-2648,-344,14796,-18,256,219
338695288,-2660,-596,15088,13,214,109
338698672,-2648,-380,14728,68,203,322
338702055,-2944,-448,15120,-116,333,54
338705525,-2684,-396,14868,142,51,436
338708908,-2564,-440,14636,-222,398,52
338712378,-2792,-604,15216,111,84,344
338715761,-2272,-536,14600,-128,350,33
338719256,-2952,-424,15108,-3,68,314
338722528,-2400,-408,14616,-52,345,121
338725998,-2804,-456,15232,19,185,315
338729381,-2496,-396,14612,-5,227,166
338732764,-2756,-424,15180,94,269,287
338736148,-2240,-472,14676,-84,175,126
338739618,-3096,-376,15136,-120,431,24
338743112,-2416,-500,14764,-31,152,269
338746558,-2908,-384,15124,-135,306,41
338750028,-2544,-544,14760,23,207,293
338753411,-2592,-340,14828,-176,333,-13
338756968,-2716,-448,14864,133,126,401
338760438,-2408,-520,14736,-105,247,57
338763908,-2800,-484,15024,78,218,224
338767338,-2632,-428,14768,-55,206,165
338770761,-2792,-488,15004,26,152,211
338774144,-2468,-340,14564,-116,300,161
338777701,-2932,-572,15252,-30,165,228
338781174,-2396,-492,14808,-33,258,192
338784676,-2956,-476,15208,-75,220,179
338788111,-2624,-492,14920,30,148,276
338791498,-2552,-444,14840,-93,341,112
338794989,-2512,-532,14904,55,69,281
338798261,-2700,-404,14984,-103,375,72
338801731,-2896,-396,15088,1,185,209
338805027,-2556,-472,14716,-4,259,188
338808410,-2796,-444,14960,-108,235,140
338811967,-2584,-448,15020,-62,137,216
338815437,-2732,-448,14876,-92,320,134
338818932,-2824,-444,14992,-55,158,219
338822377,-2676,-468,15008,-49,305,154
338825847,-2704,-448,15060,4,230,238
338829144,-2540,-584,15096,-50,267,120
338832614,-2840,-528,15084,56,253,287
338835997,-2472,-500,14736,-48,235,99
338839380,-2872,-272,14900,-84,297,169
338842875,-2764,-392,14920,-56,201,193
338846320,-2436,-564,14884,-99,323,135
338849790,-2812,-320,15040,-7,186,304
338853173,-2432,-564,14832,8,218,163
338856470,-2792,-500,15152,12,263,234
338859853,-2516,-376,14616,45,89,274
338863150,-2712,-420,15056,-56,371,67
338866536,-2808,-492,15280,80,136,310
338869963,-2532,-388,14616,-220,383,-64
338873473,-3128,-412,15420,71,179,319
338876856,-2476,-520,14764,-84,261,77
338880239,-3056,-372,15308,-58,235,263
338883709,-2508,-412,14824,-155,251,94
338887214,-2840,-480,14992,26,226,285
338890563,-2472,-472,14848,-116,280,96
338894057,-2856,-528,15212,87,206,279
338897416,-2444,-512,14592,-127,404,46
338900886,-2796,-324,14968,62,109,277
338904269,-2536,-420,14732,-61,323,154
338907739,-2964,-464,15144,3,179,165
338911036,-2480,-588,14784,-16,181,333
338914506,-2736,-428,14904,-131,304,124
338918087,-2532,-476,14984,69,94,357
338921359,-2624,-412,14864,-109,380,56
338924829,-2744,-340,15104,74,92,286
338928125,-2512,-488,14652,-23,358,139
338931595,-3028,-372,15164,43,162,252
338934979,-2156,-504,14572,7,255,146
338938275,-2880,-352,15004,-84,278,196
338941770,-2464,-476,14492,17,130,269
338945128,-2780,-344,15040,-192,393,34
338948598,-2576,-516,14948,39,97,289
338951895,-2588,-372,14828,-88,332,111
338955365,-2856,-608,15092,-21,177,256
338958835,-2536,-488,14784,-106,295,72
338962305,-2996,-416,15160,132,176,362
338965775,-2640,-508,15012,-129,318,35
338969293,-2932,-260,15028,119,147,377
338972715,-2428,-440,14800,-274,432,-199
338976358,-3144,-368,15412,112,61,412
338979742,-2340,-392,14492,-221,382,8
338983125,-3324,-424,15520,6,122,319
338986421,-2072,-412,14464,-148,404,62
338989926,-3136,-316,15256,-49,152,174
338993386,-2240,-528,14592,40,302,188
338996745,-2992,-412,15200,-75,205,132
339000215,-2748,-404,15084,111,118,290
339003685,-2472,-384,14608,-192,415,17
339007155,-3000,-368,15220,46,75,355
339010451,-2368,-496,14720,-110,366,61
339013921,-3040,-388,15364,-63,151,192
339017416,-2336,-512,14540,-58,214,165
339020861,-3092,-272,15216,-170,263,99
339024331,-2440,-616,14916,-36,180,198
339027801,-2864,-400,15240,-96,307,146
339031271,-2680,-380,14988,43,106,235
339034654,-2588,-504,14892,-47,376,60
339038038,-2836,-408,14936,-23,175,225
339041511,-2672,-404,14796,-68,272,123
339045080,-2836,-568,15012,34,245,288
339048361,-2512,-480,14944,-70,185,124
339051831,-2896,-396,15116,-65,318,219
339055301,-2492,-472,14760,-48,168,205
339058771,-2880,-348,15168,-63,260,157
339062241,-2492,-496,14764,-28,238,214
339065711,-2788,-476,15012,-65,300,75
339069117,-2748,-568,15104,81,266,231
339072477,-2708,-332,14952,-135,229,71
339075947,-2764,-436,14924,-5,230,198
339079331,-2760,-420,14968,-58,193,197
339082801,-2616,-432,15048,-21,214,232
339086271,-2716,-504,14968,-119,302,157
339089831,-2752,-484,14928,-47,194,215
339093344,-2564,-544,15012,50,212,264
339096681,-2656,-340,15036,-38,246,151
339100151,-2560,-596,14960,-6,224,176
339103534,-2696,-284,14944,-66,322,127
339107004,-2776,-548,15080,-30,155,166
339110474,-2704,-564,14896,-63,267,214
339113944,-2784,-400,14980,-89,166,236
339117438,-2616,-472,14912,-25,211,179
339120884,-2812,-400,15016,-57,239,205
339124354,-2660,-372,15000,-19,166,156
339127824,-2776,-464,15008,3,304,165
339131120,-2604,-512,15048,-42,236,198
339134590,-2816,-232,14984,30,203,193
339137974,-2484,-352,14708,-131,359,39
339141447,-2960,-292,15260,30,174,279
339144875,-2332,-540,14412,-126,398,55
339148297,-3184,-400,15424,-45,135,227
339151767,-2376,-560,14920,-9,198,260
339155150,-2928,-424,15136,-99,232,150
339158620,-2520,-472,14768,-25,168,250
339162090,-2796,-440,15000,-34,327,144
339165560,-2816,-412,15020,79,169,203
339168968,-2636,-552,15044,14,305,194
339172327,-2796,-328,15000,-60,186,179
339175797,-2348,-608,14840,-34,296,101
339179267,-2620,-584,15120,-48,143,304
339182737,-2576,-452,14916,-117,223,81
339186207,-2812,-432,15036,-36,265,236
339189677,-2580,-564,15012,-111,214,156
339193257,-2928,-392,15084,-21,209,237
339196738,-2620,-476,14940,-40,242,167
339200173,-2816,-384,15284,6,174,195
339203470,-2476,-556,14912,-12,300,185
339206940,-2928,-332,15144,-32,197,127
339210410,-2536,-524,14864,-17,262,244
339213880,-2764,-456,15004,-94,242,141
339217374,-2576,-500,14728,7,158,300
339220646,-2680,-512,14948,-132,326,107
339224203,-2592,-660,15096,42,126,272
339227586,-2688,-320,14772,-116,320,143
339231143,-2600,-476,14896,45,109,262
339234526,-2548,-600,14900,-12,387,104
339237996,-2880,-404,14820,45,145,305
339241383,-2340,-580,14860,-86,303,93
339244811,-3104,-324,15256,-5,207,319
339248146,-2436,-520,14656,-141,271,27
339251616,-3248,-360,15408,86,75,402
339254913,-2288,-496,14728,-152,301,63
339258383,-2984,-392,15220,-54,194,210
339261853,-2492,-392,14752,-81,359,90
339265236,-2892,-464,14960,59,77,325
339268557,-2504,-480,14784,-41,364,73
339271916,-2920,-440,15180,-25,229,148
339275386,-2648,-464,14956,128,175,302
339278856,-2512,-488,14772,-143,317,101
339282412,-2852,-508,15088,-87,211,159
339285882,-2732,-420,14848,-32,247,258
339289357,-2624,-552,14892,-117,217,113
339292932,-2780,-544,15148,67,93,301
339296206,-2436,-488,14852,-122,325,54
339299711,-2792,-472,15212,105,85,315
339303059,-2288,-344,14592,-86,377,61
339306442,-3212,-268,15240,7,80,297
339309652,-2372,-536,14728,-34,337,140
339313122,-2968,-352,15172,-4,120,308
339316509,-2400,-616,14632,-87,269,80
339319913,-2900,-424,15092,-105,213,259
339323445,-2480,-552,14968,-56,198,127
339326915,-2788,-492,15032,-61,293,181
339330385,-2672,-428,15072,9,154,207
339333682,-2764,-536,15132,8,248,149
339336978,-2656,-412,15012,17,211,232
339340361,-2704,-404,14776,-6,211,194
339343769,-2736,-352,14960,-56,300,159
339347215,-2592,-444,14976,-82,244,116
339350685,-2816,-468,15148,-20,207,299
339354155,-2544,-584,14960,-96,181,158
339357625,-2920,-352,15148,-24,167,220
339361095,-2520,-468,14856,-15,229,233
339364565,-2848,-516,15192,-9,191,180
339367996,-2620,-444,14848,60,237,228
339371331,-2800,-420,14912,-5,222,214
339374714,-2576,-452,14892,-1,237,185
339378098,-2652,-372,14944,-150,246,160
339381654,-2828,-312,14852,-129,192,160
339385211,-2776,-584,15252,-35,282,150
339388681,-2592,-524,15092,-99,170,151
339392174,-2844,-460,15028,35,245,188
339395534,-2728,-440,15120,-56,262,185
339399004,-2648,-524,15032,37,192,240
339402423,-2748,-432,14804,-24,306,171
339405858,-2768,-496,14840,71,116,275
339409241,-2472,-420,14844,-63,315,118
339412711,-2872,-448,15008,-8,145,215
339416094,-2540,-476,14812,-74,250,194
339419589,-2888,-432,15076,-33,250,215
339423034,-2524,-484,14912,-39,163,220
339426504,-2876,-464,15128,-54,307,176
339429974,-2516,-472,14876,-39,128,245
339433444,-3040,-504,15368,58,206,219
339436827,-2312,-560,14756,-14,216,268
339440297,-2928,-472,15056,-15,194,136
339443792,-2560,-496,14920,64,245,249
339447151,-2692,-376,14760,-185,303,98
339450621,-2672,-584,15164,-21,174,253
339454091,-2688,-404,14996,-95,215,200
339457561,-2788,-468,15036,-20,105,244
339461031,-2584,-380,14768,-55,299,154
339464501,-2736,-512,15104,2,179,196
339467846,-2544,-408,14944,-18,302,152
339471267,-2920,-432,15296,54,173,282
339474650,-2480,-384,14560,-67,237,110
339478120,-2936,-508,15328,-19,288,181
339481590,-2512,-444,14852,-16,167,188
339485060,-2808,-452,15084,65,180,249
339488444,-2576,-512,14748,-90,256,131
339491937,-2900,-416,15076,-46,212,198
339495384,-2592,-468,14816,-140,297,137
339498940,-2796,-476,15300,-16,172,193
339502449,-2488,-524,14688,-20,283,220
339505880,-2956,-348,15056,23,221,121
339509264,-2560,-476,14832,27,300,116
339512647,-2772,-332,14816,-115,261,133
339516207,-2848,-564,15084,-45,145,226
339519698,-2668,-556,15016,-108,279,160
339523230,-2672,-432,14800,-95,152,195
339526700,-2704,-516,14956,17,247,237
339530084,-2528,-468,14944,-97,307,146
339533554,-2784,-460,15024,39,183,211
339536937,-2572,-444,15000,-23,261,194
339540407,-2788,-364,15024,-7,171,198
339543815,-2616,-324,14772,10,302,184
339547173,-2560,-388,14972,-100,186,220
339550730,-2688,-352,14908,-53,260,138
339554200,-2692,-516,14984,-9,233,265
339557583,-2648,-528,14852,-51,184,175
339561053,-2732,-452,14972,9,284,191
339564350,-2624,-444,14980,-104,172,164
339567967,-2732,-424,15032,-1,190,201
339571290,-2560,-344,14792,-52,274,120
339574760,-2848,-456,15060,-23,304,87
339578143,-2508,-456,14792,-17,260,225
339581613,-2604,-608,14956,-121,278,12
339585083,-2868,-520,15008,44,188,296
339588466,-2684,-432,14816,-88,221,149
339591960,-2728,-492,15108,-31,140,209
339595406,-2556,-488,14728,-118,255,160
339598963,-2764,-496,15156,-34,160,235
339602437,-2512,-504,15084,34,280,191
339605851,-2624,-420,15060,-19,224,202
339609286,-2620,-408,14652,66,191,227
339612670,-2444,-472,14936,-141,333,49
339616140,-2680,-400,14988,-42,114,302
339619634,-2656,-540,15076,-97,292,149
339623080,-2808,-480,15120,-83,158,246
339626550,-2652,-412,14812,-36,212,221
339630020,-2820,-480,15032,-102,308,126
339633576,-2596,-484,14884,36,132,264
339636960,-2636,-476,14956,-5,353,134
339640343,-2760,-452,15060,110,71,321
339643751,-2516,-456,14644,-39,340,86
339647109,-2840,-420,15072,-36,169,213
339650579,-2496,-420,14732,-89,281,154
339654049,-2888,-484,15220,-76,259,205
339657519,-2424,-372,14608,-101,158,183
339661076,-3120,-416,15468,64,250,280
339664459,-2156,-588,14548,3,120,255
339667804,-3004,-388,15112,11,216,196
339671139,-2328,-640,14644,116,121,351
339674609,-2576,-436,14812,-170,331,-15
339678166,-2512,-488,14836,62,247,264
339681549,-2572,-504,14904,-151,208,89
339685019,-2828,-412,14980,-101,278,149
339688576,-2652,-372,15032,27,136,213
339691982,-2584,-576,14928,-49,168,234
339695429,-2560,-508,14988,-92,357,66
339698812,-2840,-468,15044,-54,150,215
339702282,-2716,-400,15016,0,284,197
339705582,-2684,-420,14952,-37,202,205
339709084,-2696,-472,14820,41,204,205
339712432,-2560,-336,14708,-91,237,183
339715902,-2916,-488,14864,-7,128,205
339719310,-2532,-456,14984,-40,319,180
339722755,-2904,-424,15032,-23,137,247
339726225,-2372,-416,14700,-91,288,137
339729695,-3040,-432,15328,-29,244,252
339733165,-2532,-572,14952,-33,217,190
339736635,-2876,-436,15152,46,261,248
339740019,-2396,-516,14624,23,173,226
339743426,-2848,-392,15120,10,321,98
339746698,-2564,-424,14828,-21,247,204
339750168,-2816,-400,15064,-115,278,121
339753725,-2792,-464,15096,-52,270,239
339757195,-2868,-400,15008,-113,250,51
339760665,-2788,-532,15156,45,196,277
339764048,-2688,-396,14876,-90,192,157
339767567,-2796,-532,15104,25,189,204
339770902,-2316,-464,14824,-61,238,239
339774372,-3060,-444,15120,-50,295,60
339777755,-2496,-500,14780,46,249,292
339781138,-2804,-504,14956,-77,275,39
339784521,-2804,-456,15148,62,147,273
339787905,-2696,-412,14960,-199,306,46
339791378,-2944,-448,15120,-22,163,282
339794868,-2432,-520,14836,-137,286,144
339798401,-2924,-356,15088,-55,208,117
339801871,-2456,-604,14732,-5,308,168
339805255,-2916,-496,15128,1,165,188
339808551,-2524,-428,14880,8,241,192
339811882,-2676,-520,14784,-82,207,143
339815318,-2760,-480,14808,-75,259,121
339818812,-2744,-500,14992,-8,227,256
339822171,-2448,-528,14944,-118,257,80
339825641,-2772,-564,15180,10,179,308
339829024,-2548,-416,14668,-70,227,116
339832494,-2836,-476,15168,54,162,324
339835877,-2636,-512,14896,-66,250,133
339839347,-2736,-436,14988,13,192,175
339842755,-2524,-472,14880,27,271,237
339846114,-2936,-308,14940,-101,208,88
339849584,-2552,-448,14896,-17,267,203
339853054,-2788,-372,14788,-123,252,116
339856611,-2656,-504,15032,-55,192,153
339860081,-2728,-332,14836,-63,255,218
339863551,-2764,-560,15096,-63,199,118
339867069,-2704,-600,14904,-17,236,280
339870491,-2652,-492,15080,-45,257,128
339873961,-2536,-452,14888,28,197,219
339877344,-2864,-476,15276,68,268,264
339880727,-2232,-592,14716,-23,199,145
339884197,-2928,-304,15120,-121,397,91
339887667,-2596,-392,14920,-97,165,217
339891141,-2736,-436,15140,-54,256,175
339894630,-2604,-488,14944,-73,286,181
339898077,-2784,-392,15000,-46,192,179
339901547,-2340,-492,14720,7,291,191
339904844,-2980,-360,15168,-112,277,77
339908314,-2860,-528,15156,122,125,333
339911787,-2516,-456,14768,-147,339,-6
339915289,-2988,-640,15256,40,95,283
339918575,-2476,-384,14576,-114,376,103
339922107,-2928,-444,15248,-101,184,173
339925664,-2520,-488,14796,4,233,254
339928960,-2740,-412,14940,-169,224,122
339932517,-2576,-492,14736,5,139,230
339935813,-2596,-496,15064,-164,353,59
339939283,-2876,-508,15016,-7,148,207
339942691,-2828,-452,15060,8,335,156
339945963,-2752,-400,14844,55,130,243
339949346,-2368,-436,14868,-63,317,89
339952730,-2620,-432,14860,-13,106,343
339956200,-2692,-404,14996,-167,232,100
339959756,-2676,-588,15284,52,165,372
339963140,-2460,-440,14712,-179,268,53
339966613,-2856,-480,15308,60,209,287
339970042,-2472,-492,14696,-60,227,114
339973463,-2968,-432,15160,55,212,200
339976846,-2552,-500,14736,-18,200,236
339980316,-3012,-340,15064,-46,221,116
339983786,-2692,-360,14812,89,180,351
339987169,-2552,-476,14704,-167,278,87
339990639,-2804,-496,15196,69,149,323
339994046,-2540,-448,14752,-138,317,104
339997579,-2708,-484,14944,-19,138,249
340001049,-2632,-416,14800,-64,304,128
340004519,-2980,-580,15412,-26,209,141
340007989,-2356,-588,14736,64,243,173
340011373,-2880,-436,15188,-115,320,62
340014846,-2744,-404,15004,134,125,336
340018355,-2604,-444,14912,-202,375,60
340021783,-2948,-484,15340,-5,95,264
340025079,-2372,-488,14728,-121,338,68
340028549,-2912,-464,15240,-25,146,254
340032019,-2524,-544,14740,-91,282,118
340035489,-2916,-420,15200,-45,260,197
340038959,-2624,-492,15064,-23,189,198
340042454,-2724,-464,14896,-91,380,5
340045726,-3012,-392,15144,70,85,293
340049022,-2220,-424,14560,-107,384,-14
340052579,-3364,-336,15512,-72,156,228
340056049,-2268,-668,14744,-33,237,143
340059519,-2928,-344,15104,-170,324,137
340063076,-2644,-464,14948,-61,171,167
340066549,-2824,-420,15116,-52,300,184
340070118,-2708,-472,14912,3,229,211
340073312,-2524,-548,14816,-17,225,184
340076782,-2980,-288,14924,-30,287,146
340080252,-2616,-384,14656,36,125,239
340083635,-2540,-368,14784,-133,393,53
340087105,-2848,-368,15004,-14,70,333
340090489,-2248,-504,14444,-165,362,14
340093983,-3384,-380,15536,91,68,457
340097255,-2052,-556,14300,-93,299,49
340100638,-3136,-416,15428,-105,324,154
340104195,-2420,-520,14752,16,156,216
340107578,-2768,-484,15016,-59,322,140
340111048,-2704,-512,15016,20,168,266
340114432,-2604,-424,14692,-97,284,67
340117842,-2896,-432,15184,57,249,291
340121237,-2576,-384,14688,-133,248,108
340124755,-2836,-560,15284,35,173,300
340128138,-2600,-488,14680,-117,236,91
340131608,-2708,-524,15136,-89,189,191
340135078,-2616,-212,14784,4,206,288
340138375,-2704,-496,15144,-42,279,61
340141782,-2928,-408,15248,77,209,326
340145141,-2512,-412,14932,-57,275,56
340148524,-2940,-476,15008,-2,229,227
340151908,-2580,-384,14692,-163,348,71
340155378,-2808,-512,15072,7,135,312
340158674,-2360,-700,15004,-90,367,76
340162057,-2916,-488,15064,-40,110,282
340165527,-2452,-644,14852,-22,337,174
340169046,-2816,-568,15068,-82,150,241
340172467,-2536,-420,14656,-19,307,122
340175937,-2916,-464,15252,64,249,235
340179321,-2352,-420,14736,73,108,307
340182704,-2564,-380,14836,-85,365,50
340186087,-2768,-456,15072,66,14,386
340189384,-2512,-440,14732,-140,420,-3
340192878,-2788,-568,14976,-51,174,275
340196324,-2528,-312,14800,-110,255,106
340199880,-2688,-436,14996,-21,242,223
340203350,-2604,-508,15144,-52,252,168
340206820,-2624,-292,14700,30,231,227
340210204,-2572,-624,15036,-22,254,152
340213674,-2796,-532,14976,-7,176,181
340217080,-2736,-408,14956,14,268,238
340220440,-2508,-524,14816,-100,236,93
340223945,-2612,-500,15008,37,195,284
340227293,-2740,-468,14920,-84,206,156
340230763,-2672,-544,14836,-31,150,210
340234233,-2740,-504,14924,-82,261,186
340237703,-2540,-520,14972,-66,231,94
340241087,-2676,-324,14916,24,258,200
340244494,-2624,-568,14944,-49,249,163
340247940,-2424,-456,14876,46,193,223
340251323,-2732,-532,14972,-42,225,185
340254793,-2640,-524,15004,-102,213,116
340258350,-2932,-292,15072,-71,175,310
340261820,-2796,-412,14964,-118,225,93
340265290,-2668,-504,14860,41,177,324
340268721,-2756,-480,15096,-142,364,50
340272143,-2860,-560,15080,35,108,267
340275526,-2432,-332,14724,-74,391,77
340278910,-2924,-496,15156,54,55,334
340282206,-2404,-560,14732,-6,315,142
340285589,-2896,-292,14816,-54,151,277
340289059,-2592,-468,15064,-118,382,19
340292554,-2972,-456,15120,-8,194,320
340295913,-2684,-336,14720,-136,244,67
340299383,-2840,-412,15076,15,230,260
340302766,-2640,-396,14920,-48,154,165
340306236,-2796,-608,15020,56,299,225
340309619,-2444,-456,14508,-53,239,173
340313089,-2880,-408,15184,-39,256,108
340316563,-2812,-372,15052,26,212,284
340319966,-2620,-460,14808,-241,341,-54
340323503,-2940,-484,15280,122,130,358
340327004,-2464,-504,14904,-102,260,96
340330439,-2956,-476,15116,-10,155,245
340333909,-2748,-460,14944,-66,267,178
340337379,-2664,-412,14912,-96,159,207
340340849,-2772,-420,15028,13,327,166
340344257,-2544,-400,15100,-7,180,238
340347616,-2852,-376,15072,53,195,216
340350999,-2544,-440,14832,-5,252,226
340354382,-2656,-412,14940,-114,237,86
340357852,-2788,-656,15184,33,207,336
340361235,-2612,-404,14844,-146,221,135
340364792,-2740,-552,14904,-11,169,262
340368310,-2472,-520,14844,-154,366,41
340371732,-2856,-444,15156,73,79,334
340375029,-2440,-416,14612,-73,412,5
340378325,-3072,-472,15440,194,-19,444
340381795,-2136,-536,14548,-164,469,-53
340385352,-3204,-392,15308,12,134,293
340388735,-2484,-348,14672,-139,301,60
340392230,-2912,-560,15368,43,232,290
340395588,-2300,-472,14656,-36,136,246
340399058,-2820,-560,15072,-168,348,86
340402528,-2448,-500,14840,-21,135,283
340405998,-2776,-324,14976,-17,263,157
340409468,-2756,-600,14984,-8,261,204
340412852,-2596,-512,14856,54,210,205
340416238,-2852,-400,14944,0,255,225
340419555,-2676,-544,15020,-40,179,194
340423001,-2744,-352,15016,16,319,160
340426385,-2600,-384,14812,-160,238,156
340429976,-2784,-408,14988,-7,188,259
340433325,-2708,-432,15012,-75,272,216
340436795,-2576,-544,14892,-101,254,89
340440265,-2988,-408,15224,28,226,306
340443672,-2376,-548,14672,-55,232,112
340447118,-3012,-412,15148,56,161,266
340450501,-2408,-420,14624,10,245,182
340453884,-2836,-452,14924,-66,332,27
340457268,-2804,-576,15044,61,227,310
340460651,-2668,-536,15048,-200,260,36
340464121,-3012,-472,15156,43,179,325
340467553,-2584,-476,14900,-85,207,217
340470974,-2808,-508,15204,-22,274,106
340474444,-2568,-664,14900,3,323,191
340477741,-2676,-508,14952,-35,193,151
340481211,-2640,-432,14968,63,238,224
340484594,-2476,-500,14804,-13,142,187
340488064,-2572,-308,14900,-101,268,89
340491537,-2708,-556,14872,-7,159,286
340494942,-2572,-416,14828,-47,258,124
340498387,-2588,-460,15020,-42,284,224
340501857,-2632,-432,14904,-108,168,162
340505414,-2724,-468,15116,-8,283,171
340508797,-2788,-400,15040,-70,172,205
340512267,-2540,-472,14708,-7,244,163
340515650,-2812,-408,15128,-55,252,198
340519144,-2464,-400,14788,-58,219,124
340522590,-2772,-392,15000,-13,225,267
340526060,-2528,-388,14784,-151,240,127
340529621,-2876,-468,15036,-56,221,176
340533122,-2492,-452,14924,-96,297,143
340536557,-2808,-392,15084,-7,103,257
340539940,-2624,-476,14908,-63,332,127
340543435,-2844,-404,14984,31,155,212
340546794,-2588,-380,14772,31,249,235
340550177,-2876,-452,15008,-12,260,169
340553647,-2596,-428,14696,-21,221,168
340557117,-2996,-472,14912,-6,250,256
340560500,-2556,-364,14708,-80,180,185
340563970,-2784,-452,15072,4,216,247
340567327,-2404,-576,14960,-116,196,153
340570823,-2768,-408,15244,-33,151,232
340574293,-2580,-444,14872,-64,358,88
340577677,-3032,-424,15168,-4,184,213
340581060,-2356,-396,14680,20,328,173
340584443,-2888,-560,15088,-47,230,142
340587913,-2608,-492,14848,-27,216,158
340591387,-2720,-456,14972,-76,206,199
340594878,-2668,-464,14884,-78,159,199
340598323,-2664,-384,14884,-63,311,173
340601793,-2532,-592,14928,-52,222,99
340605176,-2888,-432,15208,-17,230,213
340608646,-2520,-660,14912,-30,169,219
340612116,-2756,-616,15036,-93,283,50
340615500,-2968,-432,15164,30,213,279
340618906,-2536,-440,14988,-11,197,161
340622353,-2652,-620,15000,-36,261,193
340625823,-2816,-384,14872,-131,222,191
340629380,-2572,-596,14844,28,206,187
340632766,-2824,-340,15076,-77,242,242
340636268,-2476,-504,14808,-23,142,203
340639703,-2784,-440,15024,-18,241,191
340643197,-2752,-540,15020,44,125,290
340646556,-2616,-488,14692,-41,285,128
340650026,-2808,-340,15116,37,234,251
340653409,-2580,-364,14600,-26,222,131
340656879,-2912,-420,15092,-70,308,189
340660349,-2668,-456,14944,-61,130,202
340663819,-2600,-312,14932,-79,239,155
340667338,-2576,-548,14924,-30,186,258
340670759,-2744,-460,14808,-91,166,139
340674229,-2812,-456,14928,-21,297,186
340677699,-2656,-476,14796,-24,189,171
340681169,-2652,-480,15032,40,257,188
340684553,-2788,-360,15056,19,143,236
340687936,-2600,-468,15008,-83,206,136
340691409,-2804,-436,15052,-32,233,245
340694900,-2600,-472,15000,-176,227,55
340698346,-2916,-404,15124,30,228,271
340701729,-2368,-556,14780,-164,302,54
340705199,-3108,-352,15300,38,139,310
340708582,-2216,-604,14504,-137,393,32
340712052,-3100,-292,15312,18,151,206
340715436,-2496,-484,14732,34,293,165
340718842,-2632,-484,15012,11,160,183
340722202,-2776,-496,14940,-60,349,78
340725585,-2896,-388,15072,-67,160,273
340729055,-2572,-480,14700,-96,253,113
340732525,-2968,-400,15104,-47,241,250
340735999,-2500,-544,14744,-64,154,210
340739500,-2900,-452,15240,35,229,233
340742873,-2468,-500,14944,-23,186,186
340746319,-2708,-428,14904,-41,297,144
340749789,-2828,-392,15024,65,235,256
340753172,-2376,-436,14664,-5,161,220
340756555,-2900,-336,14964,-37,254,192
340760025,-2500,-532,14720,-20,145,234
340763495,-2776,-420,14896,-140,225,158
340767100,-2708,-532,15008,-25,175,246
340770522,-2468,-376,14804,-89,239,90
340773905,-2736,-496,15108,24,211,303
340777288,-2632,-540,14900,6,222,131
340780585,-2736,-376,15008,-9,267,180
340783968,-2688,-388,14904,13,160,211
340787351,-2756,-532,15088,35,184,202
340790735,-2472,-508,14932,-72,272,205
340794229,-2856,-340,14856,-55,166,169
340797675,-2724,-648,15144,-18,353,127
340801145,-2628,-328,14740,-50,61,334
340804528,-2440,-568,14944,-118,342,-3
340807998,-2816,-424,15112,55,108,325
340811381,-2460,-516,14884,-53,250,81
340814764,-2744,-600,15196,-31,277,216
340818258,-2716,-452,14860,33,128,219
340821618,-2584,-544,15068,-53,311,139
340825088,-2716,-484,14984,-60,184,155
340828558,-2816,-380,14876,8,99,309
340831767,-2556,-560,14844,-130,306,87
340835237,-2848,-340,15012,-33,124,255
340838707,-2520,-444,14876,-101,376,70
340842220,-2872,-412,15116,9,85,277
340845387,-2432,-484,14692,-25,300,91
340848770,-2836,-572,15120,-3,227,220
340852154,-2612,-488,14804,24,181,210
340855537,-2736,-432,14944,-61,318,129
340859007,-2720,-436,14872,-90,224,101
