Time,Accel_X,Accel_Y,Accel_Z,Gyro_X,Gyro_Y,Gyro_Z
574685839,-2888,-164,16036,-64,84,-76
574689222,-2792,-160,16120,-60,118,-35
574692692,-2728,-136,15996,-110,84,-57
574696162,-2868,-196,15960,-80,102,-36
574699632,-2988,-252,15964,-104,140,-56
574703189,-2792,-192,16080,-92,51,-79
574706597,-2724,-204,16072,-74,174,-50
574710042,-2840,-256,15908,-122,78,-76
574713512,-2816,-288,16032,-68,129,-55
574716982,-2848,-256,16036,-112,154,-64
574720539,-2888,-156,15964,-64,68,-65
574723922,-2872,-248,15928,-75,157,-78
574727392,-2880,-332,15968,-87,53,-72
574730800,-2872,-232,16068,-83,129,-68
574734246,-2816,-292,15916,-109,80,-69
574737715,-2736,-220,15992,-54,137,-25
574741186,-2872,-200,15936,-121,127,-66
574744742,-2856,-160,16004,-78,65,-42
574748125,-2848,-144,15900,-97,171,-50
574751595,-2804,-288,16000,-88,64,-61
574755026,-2748,-188,16048,-90,192,-67
574758449,-2732,-264,15932,-91,53,-76
574761832,-2844,-232,15984,-78,96,-50
574765215,-2872,-184,15984,-123,113,-91
574768772,-2836,-100,16112,-101,66,-70
574772242,-2868,-288,15948,-96,165,-67
574775747,-2792,-276,16016,-88,31,-59
574779099,-2848,-128,15860,-70,171,-43
574782590,-2960,-220,16092,-104,83,-94
574786035,-2800,-120,15852,-60,119,-52
574789505,-2892,-232,16000,-119,118,-94
574793062,-2780,-268,16088,-72,86,-53
574796445,-2844,-196,15916,-104,123,-84
574800002,-2784,-188,16080,-106,45,-61
574803472,-2860,-192,16032,-34,133,-44
574806967,-2844,-212,15956,-103,71,-86
574810412,-2692,-216,16076,-52,151,-50
574813882,-2820,-220,16012,-112,138,-70
574817439,-2792,-156,15940,-106,55,-63
574820909,-2868,-212,15916,-93,172,-62
574824379,-2792,-280,16020,-82,59,-84
574827762,-2904,-316,16088,-78,169,-61
574831257,-2784,-248,16164,-97,55,-53
574834615,-2688,-228,16004,-58,105,-53
574838085,-2700,-164,16108,-127,76,-63
574841555,-2944,-336,16032,-106,62,-65
574845025,-2868,-88,16016,-113,125,-35
574848495,-2920,-192,15884,-99,61,-70
574851878,-2912,-160,15840,-59,172,-57
574855395,-2744,-260,15980,-101,108,-81
574858905,-2804,-176,15952,-53,117,-59
574862375,-2768,-280,16076,-112,137,-72
574865932,-2804,-260,15916,-67,75,-32
574869315,-2776,-288,15964,-92,185,-59
574872785,-2884,-212,15948,-82,62,-59
574876203,-2836,-272,15912,-53,173,-43
574879663,-2812,-164,16060,-101,61,-99
574883109,-2688,-180,15856,-57,142,-67
574886579,-2772,-200,16008,-98,109,-74
574890048,-2804,-192,16060,-48,114,-46
574893519,-2840,-144,15916,-110,175,-70
574897075,-2784,-200,16072,-95,46,-78
574900459,-2756,-200,16032,-59,165,-56
574903932,-2784,-188,16016,-82,23,-53
574907336,-2736,-232,16020,-71,137,-66
574910782,-2824,-264,16136,-123,56,-27
574914252,-2696,-204,15892,-78,91,-64
574917635,-2788,-312,16132,-109,125,-67
574921192,-2768,-204,15980,-116,66,-92
574924662,-2700,-196,15780,-85,172,-60
574928132,-2744,-244,15924,-108,74,-66
574931626,-2700,-264,16040,-46,158,-50
574935072,-2904,-148,16016,-107,135,-71
574938628,-2900,-188,15988,-81,76,-61
574942012,-2868,-92,15884,-106,157,-59
574945482,-2808,-60,15856,-92,46,-33
574948778,-2860,-188,15884,-52,200,-75
574952248,-2832,-232,15892,-99,63,-44
574955680,-2824,-272,16020,-86,141,-76
574959101,-2876,-244,16068,-70,128,-37
574962572,-2772,-316,15852,-87,92,-72
574965955,-2960,-108,16052,-72,157,-15
574969425,-2744,-168,15840,-84,79,-85
574972808,-2956,-124,16116,-61,100,-11
574976313,-2804,-192,15844,-104,97,-103
574979859,-2836,-312,15996,-66,66,-28
574983218,-2764,-176,16024,-111,126,-88
574986775,-2868,-188,16108,-97,47,-20
574990158,-2788,-216,15956,-118,183,-64
574993715,-2900,-168,15960,-74,60,-81
574997098,-2816,-156,15968,-67,152,-49
575000568,-2924,-220,16016,-95,72,-79
575003955,-2816,-172,15824,-68,110,-73
575007446,-2916,-204,16044,-107,102,-93
575010978,-2816,-204,15788,-92,51,-37
575014361,-2888,-156,15848,-124,161,-75
575017918,-2820,-240,15928,-87,67,-52
575021301,-2812,-204,16112,-76,171,-71
575024771,-2772,-268,15864,-86,85,-44
575028154,-2820,-356,16064,-72,143,-51
575031649,-2700,-124,16052,-124,113,-20
575035181,-2912,-148,16008,-71,106,-92
575038651,-2812,-188,15796,-71,192,-59
575042121,-2796,-232,16208,-101,56,-58
575045591,-2904,-216,15976,-56,130,-85
575049061,-2796,-224,16068,-129,72,-67
575052531,-2804,-264,16084,-105,76,-60
575056102,-2856,-236,15960,-101,171,-57
575059558,-2796,-288,15976,-117,39,-41
575063028,-2776,-276,16020,-71,172,-47
575066498,-2836,-244,16012,-105,75,-51
575069968,-2760,-264,15996,-54,114,-59
575073438,-2816,-224,16100,-105,165,-71
575077034,-2840,-172,15904,-92,70,-74
575080403,-2780,-252,15992,-73,186,-65
575083848,-2760,-336,16092,-98,68,-40
575087231,-2752,-212,15964,-57,152,-53
575090701,-2752,-220,15968,-128,61,-55
575094171,-2920,-188,15916,-51,129,-42
575097641,-2828,-208,16000,-121,140,-81
575101198,-2832,-172,16132,-51,78,-47
575104606,-2772,-168,16000,-71,187,-68
575108051,-2836,-236,16032,-93,56,-76
575111435,-2828,-200,15904,-62,124,-53
575114904,-2768,-276,16048,-104,74,-72
575118374,-2792,-200,15936,-48,86,-69
575121758,-2920,-196,15868,-114,141,-39
575125315,-2824,-228,16044,-101,66,-56
575128788,-2804,-196,16012,-90,197,-89
575132279,-2840,-244,16008,-112,69,-44
575135724,-2832,-188,15864,-54,156,-54
575139195,-2820,-220,15824,-119,89,-91
575142664,-2780,-272,15972,-70,128,-66
575146134,-2792,-252,15968,-96,150,-45
575149605,-2836,-296,15976,-82,79,-52
575152988,-2804,-228,16036,-105,179,-67
575156591,-2872,-188,16064,-97,52,-67
575159928,-2756,-172,15992,-65,190,-29
575163398,-2752,-232,16052,-114,63,-74
575166868,-2804,-168,16028,-59,107,-44
575170338,-2768,-148,15932,-113,154,-44
575173895,-2792,-252,15940,-81,46,-67
575177313,-2764,-248,15892,-78,181,-41
575180772,-2756,-204,16028,-80,66,-62
575184131,-2712,-168,16128,-70,121,-52
575187601,-2832,-280,16052,-95,58,-70
575190984,-2768,-188,16060,-73,86,-59
575194368,-2900,-140,15936,-108,122,-90
575197924,-2892,-276,16080,-59,96,-38
575201308,-2752,-156,15916,-96,189,-98
575204802,-2784,-224,16044,-91,63,-65
575208161,-2912,-268,16040,-67,152,-36
575211631,-2792,-256,15976,-92,48,-82
575215014,-2908,-216,16076,-64,98,-80
575218397,-2780,-120,16044,-108,99,-38
575221867,-2800,-220,15964,-65,95,-84
575225250,-2796,-192,15860,-101,151,-67
575228811,-2796,-136,15920,-74,85,-74
575232215,-2876,-240,15884,-85,206,-97
575235661,-2928,-228,16020,-91,56,-49
575239044,-2852,-252,16032,-45,159,-56
575242514,-2764,-212,16012,-99,60,-76
575245897,-2832,-240,15980,-63,102,-40
575249367,-2796,-236,15884,-108,149,-78
575252924,-2756,-256,16036,-76,67,-55
575256354,-2836,-212,16004,-104,183,-69
575259864,-2732,-188,15984,-104,52,-87
575263334,-2888,-184,16124,-62,143,-53
575266804,-2864,-80,15964,-115,117,-66
575270274,-2784,-288,16056,-34,87,-54
575273657,-2724,-124,15880,-93,188,-67
575277130,-2788,-160,15864,-86,35,-52
575280553,-2840,-172,15952,-94,169,-34
575283980,-2848,-260,15972,-110,68,-83
575287450,-2744,-232,15948,-53,163,-21
575290920,-2804,-180,15940,-99,94,-79
575294304,-2752,-228,16124,-62,112,-63
575297774,-2864,-248,16012,-102,167,-39
575301330,-2800,-268,16096,-80,65,-64
575304738,-2792,-236,15940,-91,208,-41
575308183,-2776,-228,16096,-91,39,-55
575311567,-2760,-160,15844,-59,111,-38
575315037,-2808,-268,16044,-116,78,-84
575318507,-2788,-232,15980,-65,85,-30
575321890,-2856,-200,15964,-105,118,-87
575325447,-2768,-224,16088,-92,60,-58
575328834,-2832,-168,15940,-109,177,-33
575332411,-2880,-208,15880,-95,47,-93
575335770,-2856,-284,16044,-66,167,-35
575339240,-2832,-216,16028,-110,48,-82
575342710,-2784,-228,15924,-58,106,-70
575346180,-2688,-136,15868,-115,91,-70
575349650,-2876,-248,15828,-87,40,-64
575353033,-2844,-228,15948,-116,151,-32
575356638,-2884,-328,15816,-90,45,-58
575359973,-2904,-228,15960,-65,171,-67
575363443,-2808,-252,15888,-109,93,-69
575366913,-2756,-184,16016,-78,98,-58
575370297,-2716,-136,15904,-116,169,-95
575373853,-2736,-180,16020,-93,67,-58
575377237,-2816,-248,16052,-68,155,-83
575380748,-2872,-112,16036,-115,63,-63
575384176,-2964,-248,15868,-78,166,-65
575387647,-2788,-332,15916,-125,105,-81
575391203,-2832,-248,16028,-87,33,-79
575394586,-2816,-244,15920,-89,173,-38
575398057,-2840,-208,15856,-74,47,-62
575401440,-2896,-200,16060,-40,129,-53
575404934,-2696,-144,15944,-117,63,-88
575408380,-2788,-172,16128,-70,87,-94
575411763,-2776,-260,15940,-122,144,-66
575415320,-2824,-276,15988,-106,26,-77
575418790,-2788,-136,16124,-76,169,-39
575422260,-2920,-248,15992,-95,103,-71
575425730,-2716,-184,15904,-76,114,-49
575429203,-2828,-192,16104,-98,141,-77
575432694,-2900,-148,16032,-86,94,-68
575436053,-2812,-200,16124,-114,160,-40
575439610,-2856,-248,16008,-85,75,-101
575443080,-2740,-232,15960,-71,179,-58
575446550,-2916,-248,15976,-96,45,-59
575449933,-2852,-156,16008,-66,117,-49
575453403,-2784,-188,16000,-91,80,-51
575456835,-2768,-212,16020,-73,114,-57
575460256,-2784,-160,15868,-110,150,-71
575463813,-2804,-252,16000,-78,57,-53
575467196,-2780,-260,16004,-61,175,-65
575470666,-2792,-176,15824,-108,69,-63
575474136,-2712,-232,15928,-51,140,-57
575477606,-2808,-308,15996,-105,83,-86
575481118,-2820,-156,16060,-45,110,-46
575484546,-2776,-224,15936,-138,87,-73
575488016,-2876,-212,15912,-87,52,-66
575491399,-2844,-244,16016,-107,150,-88
575494956,-2796,-176,15864,-100,56,-72
575498426,-2800,-168,16192,-70,187,-66
575501896,-2856,-264,15992,-127,38,-42
575505391,-2856,-108,15912,-29,150,-70
575508836,-2880,-164,15828,-128,138,-54
575512393,-2684,-284,15972,-74,101,-64
575515863,-2784,-232,16068,-106,179,-78
575519420,-2856,-188,15960,-76,71,-70
575522803,-2792,-160,15952,-82,169,-78
575526273,-2848,-184,15852,-103,63,-78
575529768,-2864,-184,16028,-64,100,-39
575533213,-2864,-140,15924,-106,100,-76
575536770,-2844,-228,15968,-56,61,-60
575540153,-2828,-184,16040,-101,179,-76
575543710,-2772,-232,16160,-101,67,-57
575547180,-2792,-164,16024,-69,169,-63
575550650,-2800,-224,16084,-129,83,-75
575554123,-2744,-124,16076,-70,125,-45
575557650,-2756,-144,15948,-84,134,-69
575561060,-2732,-256,15920,-70,78,-68
575564443,-2836,-244,15828,-101,152,-48
575568000,-2864,-108,16016,-86,49,-55
575571383,-2764,-180,15940,-65,170,-68
575574853,-2812,-276,16076,-123,107,-69
575578410,-2780,-184,15972,-92,76,-71
575581835,-2944,-328,16052,-98,146,-83
575585263,-2900,-160,16004,-91,74,-29
575588646,-2944,-208,15988,-82,184,-81
575592116,-2844,-216,15972,-111,66,-40
575595586,-2936,-244,15940,-38,142,-58
575599056,-2856,-216,16088,-106,63,-50
575602526,-2700,-228,15944,-81,61,-39
575605934,-2776,-196,16032,-119,136,-64
575609466,-2716,-164,15920,-86,64,-67
575612849,-2752,-276,16068,-73,180,-70
575616319,-2912,-156,15744,-108,109,-67
575619876,-2824,-172,16052,-84,103,-49
575623346,-2760,-160,15868,-106,164,-66
575626903,-2888,-152,16048,-95,75,-63
575630311,-2920,-200,16076,-76,183,-68
575633756,-2868,-252,15980,-98,57,-60
575637140,-2860,-276,15984,-78,184,-67
575640609,-2876,-220,15916,-121,72,-66
575644080,-2768,-256,16036,-38,91,-44
575647463,-2836,-196,15916,-125,165,-50
575651019,-2824,-200,15896,-78,64,-57
575654451,-2756,-116,16012,-77,143,-55
575657873,-2852,-228,16052,-86,72,-49
575661256,-2844,-212,16064,-64,119,-39
575664726,-2852,-260,15956,-124,65,-103
575668283,-2736,-268,15916,-86,69,-69
575671666,-2812,-220,15960,-107,138,-68
575675223,-2824,-264,15832,-85,46,-60
575678606,-2772,-216,15940,-79,174,-32
575682118,-2820,-184,15892,-101,63,-55
575685546,-2944,-196,15964,-60,143,-47
575689016,-2792,-268,16024,-130,141,-88
575692573,-2780,-116,15924,-77,75,-61
575695956,-2840,-216,16056,-66,202,-46
575699426,-2760,-172,16048,-93,37,-71
575702809,-2776,-284,16164,-72,185,-60
575706304,-2812,-212,16244,-98,53,-80
575709663,-2832,-228,15948,-53,152,-47
575713133,-2820,-152,15960,-107,112,-91
575716689,-2776,-272,15892,-76,72,-55
575720073,-2792,-188,15964,-109,179,-101
575723716,-2776,-184,16072,-73,55,-72
575727099,-2808,-212,16092,-70,145,-62
575730594,-2776,-212,16028,-109,62,-75
575734039,-2852,-256,15972,-65,113,-52
575737509,-2836,-204,15996,-124,78,-70
575740979,-2812,-192,16036,-87,68,-65
575744363,-2812,-224,15976,-110,177,-51
575747919,-2836,-116,15912,-97,40,-68
575751303,-2692,-224,16036,-77,177,-69
575754821,-2872,-192,15996,-130,93,-91
575758243,-2744,-240,15940,-59,138,-54
575761713,-2880,-232,15916,-124,154,-61
575765269,-2764,-260,15904,-75,82,-68
575768653,-2840,-256,15996,-118,159,-26
575772209,-2816,-200,16000,-97,59,-83
575775592,-2660,-192,15968,-67,174,-53
575779066,-2820,-168,16056,-132,115,-47
575782661,-2812,-296,15868,-103,59,-81
575786089,-2664,-316,16004,-99,189,-66
575789559,-2828,-196,15904,-64,31,-68
575792943,-2892,-180,16060,-57,188,-62
575796413,-2880,-256,15808,-122,25,-34
575799883,-2924,-216,16016,-68,100,-51
575803352,-2852,-276,16064,-110,106,-86
575806934,-2872,-224,16068,-99,62,-56
575810293,-2864,-216,15916,-101,184,-40
575813849,-2788,-196,16036,-110,69,-79
575817319,-2744,-172,16036,-65,189,-66
575820789,-2820,-200,15976,-104,90,-95
575824259,-2868,-264,15972,-96,122,-40
575827729,-2832,-100,15996,-107,156,-60
575831310,-2892,-160,15872,-84,81,-38
575834669,-2712,-212,15872,-93,173,-70
575838139,-2820,-248,16036,-86,50,-58
575841523,-2900,-188,15980,-88,172,-66
575844993,-2824,-232,16076,-106,61,-57
575848463,-2880,-276,15932,-57,102,-66
575851933,-2800,-164,15980,-110,113,-79
575855538,-2772,-228,15932,-85,46,-48
575858872,-2816,-280,15940,-102,188,-71
575862429,-2848,-240,16036,-79,62,-81
575865813,-2868,-260,15996,-77,181,-65
575869282,-2924,-144,15964,-125,80,-86
575872753,-2828,-256,15872,-85,127,-57
575876222,-2900,-272,15812,-104,69,-61
575879716,-2824,-196,16112,-77,78,-74
575883111,-2780,-224,15880,-119,115,-47
575886633,-2880,-248,15960,-94,58,-76
575890016,-2828,-192,15908,-90,176,-68
575893486,-2808,-248,16104,-93,51,-64
575896869,-2872,-220,15944,-54,147,-77
575900339,-2840,-132,16148,-123,132,-48
575903899,-2816,-120,15908,-57,93,-81
575907303,-2764,-276,16048,-73,201,-54
575910749,-2796,-252,16040,-98,55,-68
575914132,-2912,-208,15960,-46,141,-64
575917602,-2876,-224,15964,-123,54,-84
575921072,-2792,-344,16036,-76,114,-52
575924542,-2800,-144,16056,-113,100,-56
575928099,-2768,-200,15912,-76,54,-49
575931507,-2876,-252,16024,-81,167,-52
575934952,-2732,-308,15904,-84,54,-61
575938336,-2804,-180,15816,-65,168,-55
575941806,-2808,-160,15960,-98,33,-55
575945189,-2804,-228,15964,-60,117,-46
575948659,-2852,-180,16060,-103,55,-73
575952129,-2840,-224,16140,-54,82,-81
575955561,-2812,-180,16016,-108,147,-61
575959069,-2796,-232,16004,-75,60,-54
575962452,-2888,-160,15908,-93,172,-88
575965922,-2880,-260,16040,-92,93,-47
575969305,-2788,-300,15968,-61,128,-66
575972775,-2820,-264,15984,-99,88,-49
575976158,-2740,-216,15956,-64,87,-72
575979565,-2836,-156,15952,-107,142,-68
575983137,-2772,-212,15988,-101,54,-53
575986569,-2940,-252,15900,-85,180,-34
575990038,-2780,-164,16008,-120,67,-71
575993509,-2868,-144,15912,-51,139,-50
575996978,-2840,-260,15924,-110,109,-101
576000622,-2824,-232,15940,-81,80,-50
576004009,-2808,-268,16100,-82,183,-50
576007500,-2864,-228,15968,-62,53,-55
576010858,-2660,-204,16020,-65,156,-49
576014329,-2840,-252,16136,-119,35,-66
576017799,-2868,-252,15932,-48,91,-67
576021182,-2892,-184,15920,-125,105,-60
576024738,-2776,-136,15916,-78,59,-75
576028122,-2808,-120,15984,-107,157,-66
576031703,-2808,-188,15904,-80,78,-36
576035062,-2884,-172,15932,-84,201,-69
576038532,-2720,-228,16012,-115,36,-58
576042002,-2776,-200,15952,-65,137,-40
576045472,-2744,-216,16068,-121,80,-60
576048942,-2800,-128,15916,-63,70,-57
576052325,-2740,-164,16036,-121,121,-67
576055984,-2780,-240,16016,-110,57,-58
576059352,-2800,-236,16112,-100,158,-60
576062908,-2856,-216,16076,-83,42,-73
576066292,-2904,-140,15988,-59,148,-41
576069762,-2896,-212,15896,-117,101,-81
576073319,-2724,-152,15948,-70,107,-61
576076789,-2828,-340,15980,-121,184,-74
576080368,-2780,-164,16040,-80,56,-63
576083767,-2768,-184,16040,-48,195,-34
576087198,-2868,-328,16024,-103,47,-86
576090668,-2844,-200,15908,-51,138,-56
576094143,-2824,-216,16136,-97,74,-68
576097522,-2748,-156,16024,-79,81,-49
576100905,-2772,-208,16080,-121,100,-90
576104486,-2884,-196,15872,-91,81,-76
576107845,-2840,-148,15944,-121,173,-79
576111402,-2848,-196,15916,-88,58,-68
576114785,-2852,-196,16084,-92,171,-62
576118255,-2804,-68,16048,-79,68,-67
576121552,-2800,-180,16052,-52,101,-65
576125022,-2672,-212,16028,-113,95,-30
576128491,-2760,-144,16024,-89,50,-86
576131899,-2824,-208,16024,-89,159,-46
576135345,-2820,-184,16072,-110,81,-48
576138815,-2812,-200,16104,-67,134,-78
576142285,-2804,-204,15920,-126,144,-65
576145842,-2920,-212,16008,-55,76,-33
576149225,-2756,-168,15952,-117,198,-83
576152782,-2752,-100,16112,-69,54,-55
576156213,-2792,-216,16108,-63,182,-66
576159635,-2752,-252,16076,-97,58,-53
576163018,-2880,-184,15832,-82,174,-65
576166488,-2816,-236,15948,-110,88,-57
576169958,-2796,-156,15912,-62,124,-69
576173428,-2820,-256,15872,-97,142,-57
576176898,-2892,-224,15964,-98,93,-75
576180305,-2848,-260,15904,-81,179,-77
576183755,-2768,-196,15980,-77,46,-63
576187169,-2836,-196,15996,-82,128,-68
576190605,-2788,-256,15968,-108,80,-57
576194075,-2756,-332,16028,-64,43,-31
576197458,-2792,-200,15900,-127,130,-62
576201014,-2852,-216,15884,-78,38,-70
576204422,-2904,-204,15976,-100,185,-60
576207954,-2832,-252,16068,-73,41,-85
576211338,-2748,-96,15904,-84,185,-24
576214721,-2764,-244,15816,-93,25,-71
576218104,-2736,-124,15948,-57,105,-43
576221574,-2696,-208,16024,-105,129,-56
576225131,-2868,-264,15952,-80,63,-74
576228514,-2740,-248,15964,-103,177,-65
576232096,-2772,-208,15936,-107,54,-80
576235541,-2744,-184,15972,-48,150,-62
576239011,-2888,-224,16000,-123,87,-57
576242481,-2784,-164,16044,-65,115,-65
576245951,-2752,-184,15908,-112,160,-68
576249508,-2824,-212,15948,-76,59,-60
576252891,-2868,-236,16000,-77,171,-18
576256409,-2880,-192,16020,-103,70,-84
576259831,-2812,-124,15888,-56,87,-68
576263214,-2816,-256,16004,-112,128,-74
576266771,-2812,-228,16032,-84,52,-61
576270154,-2808,-212,15996,-90,157,-67
576273624,-2836,-200,16036,-87,45,-69
576277008,-2728,-172,16068,-41,112,-69
576280501,-2768,-220,16024,-112,98,-63
576283947,-2892,-160,16120,-98,81,-53
576287366,-2848,-228,15980,-110,191,-41
576290887,-2736,-192,16016,-99,52,-73
576294271,-2744,-224,16052,-77,188,-66
576297741,-2760,-184,15968,-123,89,-76
576301211,-2772,-224,15980,-71,141,-52
576304705,-2900,-280,16004,-118,108,-80
576308237,-2848,-336,15976,-60,91,-56
576311621,-2828,-180,16052,-118,172,-62
576315178,-2880,-184,16132,-70,77,-77
576318561,-2820,-216,15932,-53,158,-46
576322031,-2796,-188,15980,-117,75,-68
576325501,-2772,-292,15932,-69,107,-58
576328974,-2796,-280,16016,-103,72,-64
576332465,-2804,-220,15912,-76,55,-72
576335824,-2856,-168,16112,-120,136,-58
576339381,-2780,-260,15876,-65,96,-63
576342764,-2772,-184,15928,-83,168,-77
576346234,-2748,-108,15988,-97,30,-57
576349617,-2808,-224,15852,-59,136,-68
576353087,-2768,-244,15964,-117,80,-64
576356606,-2876,-208,16044,-91,81,-82
576359940,-2920,-228,16012,-144,131,-74
576363497,-2796,-164,15988,-99,43,-53
576366880,-2700,-196,16108,-76,170,-53
576370351,-2800,-244,16056,-112,60,-62
576373820,-2696,-304,16048,-62,118,-56
576377290,-2784,-132,15860,-94,142,-66
576380784,-2832,-116,16096,-63,53,-33
576384144,-2892,-336,16024,-145,153,-72
576387736,-2824,-232,16064,-86,28,-52
576391084,-2804,-212,15864,-92,162,-65
576394554,-2816,-260,16088,-98,83,-51
576397937,-2904,-268,16004,-67,129,-71
576401407,-2832,-240,15984,-131,137,-101
576405075,-2796,-292,16076,-62,79,-51
576408434,-2872,-172,16016,-85,186,-67
576411904,-2900,-176,15912,-97,55,-53
576415287,-2796,-276,16100,-58,136,-42
576418757,-2856,-236,15948,-88,69,-68
576422140,-2844,-172,16040,-63,143,-41
576425610,-2848,-180,16072,-116,101,-93
576429170,-2828,-188,15892,-81,66,-66
576432575,-2776,-192,15956,-117,151,-52
576436107,-2912,-256,15960,-78,49,-71
576439490,-2772,-216,15864,-106,173,-41
576443047,-2804,-196,16056,-91,70,-65
576446430,-2752,-228,15984,-70,128,-52
576449900,-2812,-256,15852,-94,55,-63
576453283,-2848,-120,16000,-70,73,-60
576456715,-2824,-196,16000,-133,143,-52
576460223,-2796,-228,15964,-88,40,-57
576463607,-2752,-184,16068,-106,169,-60
576467163,-2728,-212,15984,-84,78,-59
576470547,-2716,-180,15924,-61,123,-64
576474017,-2776,-136,16024,-129,116,-74
576477573,-2880,-184,15968,-34,105,-53
576481067,-2864,-208,16056,-115,176,-72
576484600,-2788,-308,16004,-73,51,-68
576488019,-2744,-192,15912,-51,144,-61
576491454,-2852,-168,15980,-100,66,-60
576494924,-2828,-144,16036,-78,72,-68
576498307,-2836,-216,15980,-104,106,-74
576501864,-2824,-216,15820,-46,59,-69
576505271,-2876,-172,16004,-106,186,-75
576508803,-2824,-152,15908,-107,25,-43
576512273,-2772,-152,16016,-78,168,-69
576515744,-2876,-236,16048,-115,92,-85
576519213,-2864,-204,15936,-63,71,-58
576522597,-2924,-252,15968,-116,108,-61
576526153,-2900,-228,15972,-72,70,-56
576529561,-2872,-264,16092,-109,168,-84
576533094,-2768,-224,15816,-98,45,-59
576536477,-2812,-240,15920,-78,144,-58
576539947,-2824,-272,15896,-119,92,-64
576543417,-2792,-180,16000,-49,117,-51
576546887,-2832,-276,16016,-110,164,-65
576550443,-2736,-216,16000,-91,61,-56
576553830,-2764,-212,16132,-77,156,-72
576557357,-2732,-176,15912,-91,40,-74
576560680,-2884,-316,15884,-70,115,-66
576564150,-2892,-156,16076,-125,84,-78
576567620,-2768,-260,15788,-78,79,-82
576571003,-2800,-208,15952,-127,138,-49
576574560,-2800,-212,15848,-98,50,-54
576577943,-2744,-188,16024,-80,182,-46
576581436,-2868,-224,15948,-107,96,-45
576584883,-2872,-224,16012,-57,144,-54
576588388,-2888,-232,15996,-121,140,-59
576591910,-2672,-148,15968,-71,77,-60
576595293,-2796,-256,15964,-90,104,-61
576598763,-2784,-200,16004,-77,72,-58
576602146,-2804,-228,15936,-95,169,-54
576605641,-2800,-200,15936,-93,62,-45
576609000,-2792,-220,16012,-68,154,-51
576612470,-2784,-260,15996,-116,121,-65
576616027,-2900,-256,16016,-74,123,-63
576619496,-2824,-216,15880,-124,168,-78
576623053,-2876,-212,16024,-98,65,-53
576626437,-2804,-300,16096,-69,150,-59
576629931,-2864,-240,16064,-98,65,-42
576633290,-2864,-104,16124,-62,103,-60
576636760,-2896,-196,15952,-138,93,-50
576640230,-2840,-144,15940,-86,81,-66
576643613,-2856,-212,16088,-124,162,-75
576647170,-2808,-260,15980,-85,53,-49
576650553,-2716,-204,15948,-71,175,-68
576654027,-2840,-308,15936,-98,56,-57
576657455,-2844,-180,16128,-79,156,-58
576660876,-2808,-176,15968,-88,65,-56
576664259,-2752,-176,15908,-96,105,-62
576667730,-2796,-180,16044,-97,95,-97
576671113,-2748,-220,15952,-76,72,-62
576674496,-2740,-184,15960,-100,170,-71
576678053,-2884,-184,15884,-73,47,-58
576681459,-2876,-184,15936,-76,173,-65
576684906,-2736,-208,15924,-73,52,-71
576688293,-2920,-292,15948,-78,101,-48
576691794,-2812,-296,15800,-114,125,-37
576695316,-2784,-296,15980,-83,56,-74
576698699,-2780,-220,15980,-68,184,-59
576702169,-2792,-284,16044,-109,78,-72
576705664,-2812,-188,15840,-56,133,-65
576709109,-2812,-232,15968,-110,161,-61
576712666,-2784,-180,16132,-80,56,-64
576716049,-2764,-224,15952,-88,187,-67
576719519,-2780,-252,16056,-76,63,-43
576722903,-2860,-260,16004,-69,119,-38
576726372,-2820,-160,15912,-102,74,-79
576729867,-2780,-192,15804,-64,84,-62
576733226,-2844,-288,15884,-119,128,-83
576736783,-2804,-272,15932,-54,80,-53
576740166,-2768,-196,16000,-96,184,-71
576743636,-2816,-184,15944,-90,67,-103
576747106,-2888,-216,16064,-51,160,-54
576750576,-2812,-208,15952,-86,52,-81
576753963,-2844,-192,16036,-82,113,-60
576757477,-2816,-216,16024,-104,99,-69
576760899,-2848,-184,15944,-76,54,-75
576764282,-2720,-192,15860,-100,153,-57
576767839,-2828,-140,15920,-90,41,-63
576771222,-2836,-288,16088,-80,178,-41
576774692,-2736,-224,15868,-120,79,-37
576778162,-2756,-280,15900,-60,121,-59
576781656,-2884,-196,16024,-112,150,-69
576785189,-2740,-224,15900,-79,83,-51
576788572,-2832,-256,15972,-127,135,-54
576792164,-2768,-192,16004,-87,57,-59
576795512,-2828,-228,15984,-76,164,-70
576798982,-2768,-272,16000,-117,56,-68
576802452,-2888,-236,15912,-56,132,-33
576805947,-2792,-176,16100,-130,122,-49
576809479,-2776,-152,15960,-49,104,-32
576812949,-2852,-280,15916,-121,156,-74
576816506,-2816,-176,16040,-105,68,-43
576819976,-2716,-252,15916,-86,183,-85
576823446,-2800,-232,16012,-102,72,-54
576826916,-2804,-232,15880,-57,107,-70
576830410,-2856,-244,15912,-100,101,-99
576833943,-2740,-88,15992,-82,62,-76
576837239,-2828,-272,16036,-111,164,-83
576840796,-2916,-180,15988,-81,50,-58
576844179,-2756,-180,16068,-76,169,-27
576847649,-2744,-164,16104,-111,81,-74
576851119,-2772,-268,16008,-70,138,-90
576854637,-2780,-132,15912,-107,136,-53
576858146,-2776,-204,16044,-95,67,-56
576861529,-2872,-184,15972,-104,173,-77
576865086,-2804,-236,15940,-95,51,-88
576868469,-2920,-252,15928,-75,128,-80
576871939,-2696,-256,15956,-103,82,-76
576875409,-2880,-196,15872,-63,91,-76
576878796,-2808,-124,16104,-114,140,-49
576882372,-2816,-292,15948,-87,62,-61
576885732,-2792,-116,15948,-101,175,-42
576889289,-2808,-152,15960,-93,56,-86
576892707,-2708,-116,15984,-77,147,-35
576896142,-2792,-196,16028,-88,53,-67
576899525,-2868,-188,15964,-87,103,-49
576902996,-2844,-304,15940,-105,112,-71
576906577,-2748,-232,15980,-95,79,-50
576909936,-2788,-240,16028,-110,159,-61
576913492,-2776,-212,15952,-100,31,-73
576916962,-2792,-192,16068,-79,183,-51
576920432,-2728,-212,16040,-117,75,-80
576923902,-2848,-332,15924,-58,138,-49
576927372,-2816,-276,15964,-118,153,-60
576930954,-2820,-284,15884,-69,52,-60
576934312,-2800,-168,16004,-90,186,-74
576937782,-2776,-320,15972,-87,36,-59
576941166,-2848,-284,15912,-66,157,-64
576944635,-2732,-184,15900,-101,74,-82
576948105,-2836,-160,15816,-43,75,-68
576951489,-2732,-284,15900,-127,122,-73
576955095,-2844,-208,16004,-95,60,-59
576958429,-2812,-228,15860,-113,176,-45
576961985,-2848,-176,15816,-89,51,-46
576965369,-2792,-268,16008,-60,146,-44
576968839,-2852,-236,16068,-89,56,-39
576972222,-2792,-168,16060,-59,87,-83
576975605,-2940,-120,16112,-121,120,-48
576979186,-2788,-268,16088,-85,59,-52
576982545,-2828,-156,15908,-111,190,-65
576986102,-2744,-264,16012,-118,47,-62
576989572,-2824,-172,16048,-73,175,-36
576993077,-2808,-336,15956,-96,97,-71
576996425,-2804,-204,16012,-50,105,-58
576999895,-2768,-228,16028,-98,170,-52
577003365,-2752,-248,15932,-100,46,-94
577006860,-2880,-184,16076,-61,164,-47
577010305,-2748,-256,15988,-113,71,-81
577013775,-2876,-228,15976,-64,97,-69
577017158,-2812,-164,15972,-117,117,-76
577020715,-2688,-240,16068,-69,58,-68
577024099,-2856,-288,15928,-105,150,-60
577027655,-2828,-208,16088,-104,60,-95
577031150,-2736,-164,15980,-91,169,-72
577034595,-2836,-284,16024,-126,80,-49
577038065,-2812,-252,15960,-56,126,-78
577041535,-2804,-276,16088,-121,86,-29
577045005,-2748,-236,15884,-85,93,-86
577048388,-2836,-228,16072,-110,149,-30
577051945,-2784,-192,15880,-106,26,-68
577055518,-2868,-288,16076,-47,129,-35
577058885,-2784,-232,16012,-88,70,-84
577062268,-2728,-196,16028,-63,129,-42
577065738,-2788,-204,15968,-112,119,-72
577069295,-2812,-224,16000,-83,95,-57
577072679,-2824,-164,15808,-113,183,-86
577076235,-2740,-272,16092,-73,66,-75
577079642,-2896,-212,16048,-54,159,-54
577083088,-2868,-172,15932,-98,50,-35
577086472,-2792,-244,16224,-64,109,-65
577089942,-2792,-204,15884,-114,89,-60
577093451,-2884,-248,15916,-68,70,-61
577096795,-2788,-280,15916,-98,142,-78
577100265,-2860,-228,15960,-73,90,-78
577103652,-2788,-220,15888,-56,168,-38
577107143,-2868,-112,15924,-89,52,-81
577110502,-2776,-120,16088,-82,139,-50
577113971,-2812,-224,16016,-97,71,-70
577117355,-2708,-112,15884,-71,82,-52
577120738,-2796,-228,15864,-120,135,-88
577124295,-2760,-248,15892,-79,61,-80
577127678,-2720,-292,15992,-106,185,-71
577131259,-2872,-260,16124,-125,62,-79
577134705,-2880,-148,15936,-65,157,-67
577138175,-2780,-172,16016,-99,95,-36
577141558,-2776,-176,16096,-62,95,-69
577144941,-2688,-84,15976,-94,104,-61
577148324,-2800,-216,15992,-82,62,-86
577151708,-2776,-180,16052,-131,147,-68
577155313,-2716,-252,16120,-85,40,-68
577158648,-2832,-244,15960,-111,191,-85
577162205,-2904,-228,16160,-92,61,-67
577165588,-2880,-236,16024,-76,177,-61
577169058,-2700,-216,15884,-132,121,-55
577172614,-2752,-304,15948,-57,90,-69
577175998,-2792,-228,16080,-133,86,-57
577179491,-2760,-144,15932,-82,73,-67
577182851,-2712,-248,15960,-125,165,-73
577186408,-2816,-252,15856,-101,49,-64
577189878,-2728,-184,15944,-61,182,-38
577193351,-2772,-204,15912,-117,87,-105
577196939,-2816,-204,15948,-80,72,-55
577200288,-2820,-288,16116,-119,146,-61
577203848,-2800,-176,15956,-90,83,-63
577207252,-2876,-224,16044,-78,165,-53
577210698,-2768,-252,15848,-72,64,-58
577214081,-2976,-124,15900,-52,138,-45
577217551,-2852,-176,16028,-101,95,-71
577221021,-2840,-316,16116,-65,85,-55
577224404,-2852,-228,15944,-108,114,-71
577227961,-2848,-128,15972,-70,41,-41
577231369,-2736,-208,16000,-95,178,-79
577234814,-2824,-160,15924,-101,59,-64
577238284,-2876,-208,15988,-79,156,-58
577241754,-2832,-232,16108,-111,108,-71
577245311,-2748,-224,15956,-72,99,-69
577248694,-2864,-168,16024,-127,136,-65
577252251,-2688,-232,16044,-88,68,-72
577255683,-2896,-248,15960,-83,147,-62
577259104,-2796,-288,16020,-91,86,-65
577262487,-2820,-212,16052,-64,159,-54
577265958,-2760,-256,15960,-124,140,-74
577269514,-2820,-200,16012,-65,99,-34
577272897,-2892,-192,16100,-113,163,-65
577276454,-2784,-312,16012,-94,66,-51
577279861,-2756,-188,16144,-66,166,-64
577283308,-2940,-256,16012,-100,32,-56
577286778,-2816,-288,15996,-56,128,-87
577290248,-2836,-256,15964,-136,69,-60
577293717,-2748,-240,15860,-80,78,-68
577297136,-2724,-264,15872,-137,145,-52
577300658,-2840,-212,15832,-79,51,-69
577304044,-2728,-192,15872,-93,178,-52
577307535,-2744,-216,15984,-110,83,-74
577310981,-2808,-292,15976,-63,146,-39
577314451,-2804,-284,15844,-124,114,-88
577318008,-2760,-244,15952,-57,89,-71
577321391,-2852,-280,15876,-133,107,-72
577324948,-2852,-244,16044,-97,80,-64
577328331,-2868,-204,15868,-108,147,-62
577331912,-2932,-304,15984,-100,22,-58
577335358,-2808,-216,15924,-52,130,-34
577338828,-2772,-176,15952,-120,47,-75
577342298,-2776,-232,15952,-49,138,-50
577345767,-2812,-268,15976,-112,113,-54
577349324,-2864,-152,16052,-68,55,-76
577352708,-2792,-224,16168,-71,185,-60
577356226,-2816,-216,16056,-100,39,-61
577359647,-2836,-256,15940,-72,155,-60
577363118,-2868,-308,16012,-88,51,-71
577366501,-2712,-276,16020,-65,74,-78
577369884,-2736,-144,15924,-114,94,-60
577373354,-2852,-196,16056,-72,41,-55
577376737,-2856,-196,16168,-73,158,-48
577380231,-2824,-296,16060,-102,72,-72
577383677,-2852,-220,15980,-75,161,-37
577387147,-2796,-136,15960,-118,126,-56
577390704,-2824,-156,16032,-56,101,-44
577394174,-2864,-264,16000,-108,190,-53
577397766,-2780,-248,16024,-87,70,-55
577401114,-2696,-188,16040,-72,172,-52
577404609,-2820,-256,15948,-103,59,-62
577408054,-2804,-184,16028,-43,119,-68
577411524,-2800,-288,16160,-125,108,-58
577415081,-2760,-168,15840,-67,64,-70
577418464,-2772,-192,16024,-108,114,-78
577422021,-2780,-196,15980,-74,79,-74
577425404,-2772,-192,16076,-109,188,-46
577428964,-2868,-244,16008,-84,36,-64
577432369,-2820,-268,16056,-89,185,-63
577435814,-2824,-224,15932,-96,28,-52
577439197,-2780,-204,15952,-59,106,-40
577442667,-2852,-232,16216,-109,115,-76
577446224,-2768,-268,15916,-90,52,-76
577449607,-2852,-168,15992,-88,143,-51
577453077,-2824,-176,15928,-84,38,-64
577456509,-2836,-168,15888,-60,175,-61
577459930,-2832,-224,16004,-123,105,-65
577463487,-2868,-176,16016,-68,119,-56
577466957,-2744,-272,16132,-98,158,-54
577470427,-2764,-228,16028,-91,86,-75
577473810,-2744,-240,16064,-47,166,-58
577477281,-2844,-284,15976,-106,45,-64
577480774,-2812,-240,16148,-48,137,-35
577484220,-2924,-284,15972,-77,71,-65
577487604,-2748,-200,15980,-73,137,-49
577491074,-2872,-216,16116,-97,120,-58
577494544,-2684,-248,15792,-74,104,-59
577498049,-2784,-248,15772,-93,167,-53
577501484,-2848,-244,15992,-99,64,-57
577504892,-2844,-364,15908,-59,163,-71
577508337,-2820,-256,15956,-116,69,-54
577511807,-2816,-280,15920,-74,99,-62
577515190,-2784,-288,16000,-114,98,-84
577518660,-2720,-160,15904,-65,52,-74
577522044,-2764,-188,15988,-94,163,-93
577525514,-2860,-232,15996,-73,41,-22
577528900,-2840,-244,16088,-93,178,-72
577532391,-2816,-200,15884,-112,63,-71
577535837,-2908,-136,15964,-68,145,-57
577539307,-2928,-256,16008,-117,88,-64
577542777,-2796,-244,16056,-84,45,-64
577546160,-2884,-192,16008,-113,172,-45
577549717,-2872,-212,15896,-75,49,-59
577553100,-2728,-204,15992,-100,164,-59
577556717,-2812,-160,15976,-106,77,-86
577560127,-2836,-232,16052,-72,142,2
577563423,-2804,-232,15992,-109,150,-72
577566980,-2820,-288,15948,-64,88,-52
577570363,-2832,-152,15948,-95,118,-85
577573833,-2828,-148,16116,-128,48,-49
577577303,-2824,-144,16008,-87,187,-51
577580797,-2844,-268,16016,-123,72,-87
577584243,-2876,-192,15856,-33,166,-47
577587713,-2856,-196,15960,-114,112,-53
577591270,-2824,-224,16044,-72,118,-65
577594740,-2812,-252,15940,-123,187,-67
577598332,-2768,-220,16104,-80,67,-67
577601680,-2804,-248,15888,-88,172,-64
577605174,-2812,-192,15980,-92,46,-75
577608533,-2684,-252,15908,-57,134,-63
577612003,-2800,-240,15996,-99,49,-69
577615386,-2916,-268,16092,-67,114,-73
577618856,-2792,-272,16036,-117,133,-47
577622413,-2884,-244,16024,-100,55,-65
577625883,-2788,-340,15956,-98,148,-72
577629378,-2820,-232,15984,-96,43,-51
577632736,-2808,-248,15832,-82,165,-41
577636207,-2812,-260,15948,-124,69,-49
577639676,-2744,-176,16096,-66,139,-53
577643147,-2768,-204,15920,-125,122,-87
577646703,-2796,-192,16128,-74,112,-39
577650173,-2848,-252,16020,-87,172,-83
577653647,-2800,-160,16020,-87,67,-59
577657075,-2880,-200,16016,-50,143,-19
577660496,-2888,-212,15976,-109,63,-62
577663967,-2772,-244,16044,-46,153,-59
577667437,-2824,-204,16020,-106,134,-73
577670993,-2780,-192,16000,-103,72,-65
577674463,-2836,-208,15960,-83,168,-61
577677933,-2828,-360,16028,-88,45,-63
577681340,-2792,-192,16144,-58,135,-56
577684786,-2888,-204,16076,-93,80,-77
577688170,-2844,-236,15884,-74,74,-58
577691553,-2760,-180,15952,-107,119,-77
577695114,-2776,-200,15996,-86,36,-59
577698528,-2748,-248,15988,-102,178,-81
577702050,-2988,-176,15984,-94,40,-60
577705458,-2896,-168,15980,-79,183,-50
577708903,-2868,-184,16016,-118,103,-34
577712460,-2796,-216,15944,-60,101,-38
577715930,-2748,-164,15928,-112,155,-71
577719486,-2728,-284,15888,-82,82,-73
577722870,-2844,-148,16020,-92,158,-53
577726340,-2884,-248,16000,-94,47,-80
577729747,-2844,-220,15888,-47,126,-51
577733193,-2760,-264,15752,-92,74,-98
577736576,-2724,-284,15932,-76,152,-56
577740046,-2844,-300,15944,-119,157,-72
577743603,-2824,-188,15992,-41,94,-61
577746986,-2864,-236,16036,-95,184,-44
577750456,-2764,-188,15952,-93,81,-45
577753843,-2880,-176,15872,-40,151,-57
577757358,-2796,-284,16092,-82,72,-56
577760693,-2832,-176,15940,-74,93,-73
577764076,-2808,-252,16028,-131,85,-81
577767546,-2856,-208,16044,-50,95,-59
577770929,-2692,-272,16016,-113,177,-25
577774486,-2852,-164,16004,-73,56,-65
577777869,-2932,-248,15924,-71,152,-35
577781363,-2792,-212,16056,-123,62,-60
577784809,-2812,-220,15944,-76,65,-74
577788192,-2812,-248,16124,-129,141,-51
577791749,-2696,-272,15936,-82,32,-67
577795133,-2900,-144,16000,-95,169,-74
577798637,-2868,-176,15900,-116,42,-78
577802073,-2944,-232,15948,-83,173,-53
577805567,-2740,-244,15996,-97,101,-79
577809012,-2740,-228,15840,-71,112,-46
577812483,-2772,-252,16000,-125,156,-74
577816039,-2808,-256,15940,-57,54,-71
577819423,-2808,-176,15876,-93,169,-51
577822893,-2916,-288,15932,-87,63,-68
577826276,-2844,-180,15852,-75,175,-55
577829770,-2824,-236,15992,-112,55,-96
577833216,-2872,-212,16004,-74,138,-51
577836686,-2724,-160,16108,-131,145,-51
577840242,-2812,-204,16024,-77,68,-52
577843626,-2780,-232,15888,-63,185,-54
577847096,-2832,-232,16032,-103,51,-53
577850566,-2916,-284,16148,-68,141,-64
577854039,-2812,-212,15988,-116,67,-60
577857554,-2700,-184,16068,-72,60,-67
577860889,-2836,-220,15888,-121,143,-65
577864446,-2756,-264,15952,-94,44,-70
577867829,-2704,-236,15972,-87,184,-53
577871299,-2872,-188,16072,-86,53,-65
577874682,-2708,-200,16016,-53,162,-46
577878152,-2848,-192,16048,-89,46,-97
577881559,-2956,-240,15924,-78,114,-57
577885006,-2856,-272,16020,-121,112,-64
577888562,-2804,-172,16068,-83,56,-53
577891946,-2720,-212,16016,-98,183,-48
577895416,-2784,-248,16028,-107,51,-97
577898920,-2740,-248,15988,-61,159,-62
577902355,-2804,-272,16052,-128,82,-60
577905850,-2920,-232,15900,-62,98,-46
577909209,-2764,-212,15964,-109,195,-62
577912765,-2904,-136,15936,-55,71,-40
577916149,-2864,-172,15916,-71,161,-47
577919619,-2776,-176,16008,-91,41,-83
577923002,-2728,-232,16020,-80,106,-68
577926472,-2860,-244,15996,-114,110,-61
577930053,-2812,-244,16044,-78,63,-57
577933412,-2800,-136,16032,-91,142,-62
577936882,-2924,-160,15944,-75,81,-69
577940265,-2976,-252,15816,-61,197,-70
577943735,-2792,-184,15956,-91,63,-61
577947119,-2824,-228,16016,-63,129,-59
577950589,-2756,-200,15912,-126,77,-58
577954062,-2748,-200,15984,-86,75,-81
577957491,-2820,-256,15912,-121,138,-58
577960998,-2704,-104,16108,-75,39,-76
577964382,-2700,-308,15888,-103,186,-24
577967938,-2772,-264,15960,-101,84,-81
577971409,-2824,-212,16004,-52,118,-42
577974879,-2780,-220,15844,-112,118,-83
577978435,-2716,-232,15892,-81,79,-51
577981842,-2812,-200,15980,-83,180,-67
577985288,-2852,-192,16008,-93,50,-67
577988672,-2772,-136,15956,-93,170,-74
577992142,-2876,-256,15912,-116,31,-69
577995612,-2876,-180,15948,-60,155,-61
577999117,-2880,-252,15996,-139,118,-60
578002639,-2844,-256,15936,-58,92,-46
578006046,-2796,-180,15916,-101,159,-72
578009579,-2820,-196,15932,-87,85,-47
578012962,-2824,-116,16016,-55,192,-62
578016432,-2832,-240,16000,-93,60,-41
578019815,-2836,-164,16000,-88,123,-34
578023285,-2832,-168,16000,-127,94,-96
578026755,-2836,-232,15956,-76,93,-62
578030163,-2868,-232,15872,-113,153,-56
578033695,-2864,-240,15904,-94,10,-52
578037078,-2796,-328,15960,-65,197,-54
578040548,-2876,-200,16064,-127,55,-49
578044018,-2676,-244,16052,-46,132,-61
578047488,-2852,-228,15936,-113,60,-58
578050958,-2804,-208,15924,-72,65,-29
578054444,-2848,-184,15960,-120,127,-85
578057898,-2824,-224,16092,-103,47,-75
578061368,-2872,-268,15980,-81,146,-22
578064838,-2740,-328,15992,-91,92,-81
578068221,-2844,-192,15932,-59,135,-45
578071692,-2948,-224,15936,-127,162,-64
578075248,-2784,-232,15828,-80,93,-62
578078635,-2820,-152,15992,-84,173,-62
578082125,-2808,-256,15964,-88,35,-71
578085485,-2760,-188,15924,-63,151,-53
578088955,-2848,-264,15984,-108,65,-63
578092425,-2876,-196,15964,-66,82,-75
578095808,-2836,-204,15836,-123,107,-66
578099404,-2788,-116,15980,-84,68,-108
578102835,-2828,-116,15916,-127,169,-57
578106416,-2796,-264,15976,-103,65,-78
578109861,-2828,-288,15992,-53,152,-46
578113331,-2804,-196,16076,-120,87,-83
578116801,-2840,-176,15936,-73,144,-42
578120271,-2860,-248,15960,-94,140,-70
578123742,-2832,-236,15948,-93,66,-39
578127125,-2884,-220,15992,-110,152,-86
578130706,-2684,-204,16116,-90,47,-49
578134065,-2868,-296,15924,-71,181,-69
578137535,-2804,-200,15976,-108,85,-49
578141005,-2896,-240,15968,-79,134,-58
578144475,-2828,-224,15936,-142,131,-65
578148031,-2808,-260,15864,-47,67,-50
578151415,-2800,-172,15988,-79,177,-35
578154933,-2728,-216,15936,-78,78,-67
578158268,-2884,-136,15984,-57,147,-72
578161738,-2824,-196,16036,-119,87,-78
578165208,-2920,-196,15868,-98,117,-23
578168678,-2876,-268,16044,-84,127,-42
578172148,-2708,-216,15916,-82,63,-66
578175531,-2848,-268,15872,-79,184,-53
578179005,-2840,-196,15988,-101,76,-70
578182494,-2864,-248,15968,-55,146,-49
578185941,-2780,-240,15984,-108,138,-49
578189498,-2896,-176,15804,-68,101,-65
578192968,-2780,-248,16072,-92,199,-65
578196438,-2884,-168,15912,-100,56,-58
578199943,-2824,-160,16008,-81,155,-43
578203378,-2876,-200,15884,-89,43,-94
578206786,-2700,-236,15952,-62,152,-35
578210231,-2772,-224,15928,-123,99,-49
578213701,-2728,-256,15908,-54,104,-53
578217171,-2704,-196,15964,-98,149,-75
578220641,-2728,-236,15940,-67,42,-65
578224025,-2804,-332,16000,-93,216,-62
578227495,-2736,-200,15912,-101,49,-51
578230989,-2872,-168,15900,-76,154,-72
578234434,-2840,-240,16056,-89,80,-77
578237818,-2760,-232,15912,-68,88,-50
578241201,-2772,-244,15980,-112,111,-83
578244758,-2836,-164,16008,-90,67,-69
578248141,-2856,-180,16040,-104,169,-70
578251698,-2924,-188,15944,-97,57,-75
578255129,-2880,-280,15960,-82,167,-41
578258551,-2760,-216,16016,-100,47,-60
578262021,-2884,-224,15980,-58,134,-56
578265491,-2836,-348,16092,-95,70,-71
578268874,-2868,-284,16016,-67,70,-71
578272258,-2812,-128,15968,-92,112,-67
578275727,-2872,-192,16044,-66,76,-45
578279134,-2772,-96,15984,-119,157,-76
578282581,-2768,-236,15796,-103,50,-88
578286051,-2800,-272,15988,-73,164,-38
578289521,-2812,-108,16056,-90,43,-64
578292904,-2804,-244,15964,-79,117,-46
578296374,-2784,-240,16072,-104,103,-90
578299969,-2796,-200,16104,-88,46,-77
578303314,-2832,-252,16008,-83,197,-56
578306809,-2796,-152,15840,-99,54,-58
578310167,-2700,-184,15916,-42,178,-42
578313637,-2912,-300,15848,-91,100,-60
578317107,-2868,-256,15992,-48,96,-52
578320491,-2836,-168,16040,-114,176,-69
578324047,-2948,-104,15916,-75,83,-54
578327430,-2800,-236,16108,-78,184,-57
578330925,-2800,-180,15968,-80,42,-63
578334284,-2828,-228,15824,-86,177,-71
578337754,-2748,-164,16072,-118,80,-79
578341224,-2760,-240,16008,-63,127,-68
578344694,-2844,-224,15936,-132,113,-53
578348250,-2828,-288,16048,-89,84,-67
578351634,-2748,-168,15900,-85,160,-67
578355152,-2876,-220,16040,-75,65,-63
578358487,-2732,-224,16052,-63,127,-35
578361957,-2728,-224,16056,-114,79,-78
578365427,-2836,-268,15932,-91,63,-67
578368810,-2780,-216,15984,-130,135,-71
578372367,-2796,-272,15992,-81,59,-62
578375750,-2788,-228,15892,-77,176,-66
578379244,-2944,-248,15924,-101,60,-76
578382690,-2836,-256,15992,-53,170,-48
578386160,-2848,-232,16032,-121,67,-49
578389630,-2824,-248,16128,-89,67,-61
578393013,-2812,-204,15992,-114,174,-66
578396570,-2904,-208,15928,-93,56,-76
578399992,-2880,-216,16036,-90,175,-73
578403423,-2880,-248,15904,-101,72,-66
578406918,-2884,-220,15968,-54,146,-57
578410364,-2836,-144,15988,-113,122,-69
578413920,-2844,-192,16008,-60,72,-67
578417303,-2748,-148,15888,-106,167,-93
578420860,-2808,-144,15968,-88,73,-54
578424243,-2820,-184,15952,-60,165,-47
578427713,-2876,-132,16036,-110,52,-41
578431208,-2792,-192,15960,-73,146,-42
578434653,-2788,-252,15976,-107,87,-50
578438123,-2780,-144,16044,-85,79,-60
578441507,-2840,-192,16008,-116,146,-64
578445064,-2904,-184,16068,-88,42,-52
578448447,-2852,-244,15960,-81,153,-73
578451917,-2852,-240,16016,-114,94,-68
578455435,-2772,-204,15956,-60,120,-66
578458857,-2876,-256,15824,-120,90,-71
578462327,-2892,-272,15912,-95,57,-56
578465710,-2844,-216,15808,-109,137,-77
578469267,-2716,-152,16068,-75,50,-49
578472650,-2860,-220,15976,-79,191,-90
578476120,-2736,-260,15904,-99,45,-68
578479526,-2696,-292,15904,-70,183,-64
578482973,-2708,-204,15760,-117,99,-95
578486443,-2808,-248,16036,-44,103,-55
578489913,-2828,-260,16056,-136,152,-40
578493470,-2764,-172,15968,-78,77,-58
578496853,-2808,-240,15756,-95,181,-48
578500358,-2836,-220,16096,-96,55,-56
578503710,-2888,-184,16032,-83,176,-39
578507201,-2788,-204,16092,-100,88,-71
578510647,-2840,-264,15948,-61,112,-50
578514117,-2804,-176,16108,-92,161,-101
578517673,-2828,-300,16060,-99,73,-83
578521056,-2760,-252,15944,-78,172,-56
578524526,-2848,-184,16020,-89,74,-71
578527910,-2860,-148,15956,-70,163,-57
578531404,-2796,-244,15940,-99,55,-78
578534763,-2824,-224,16108,-67,111,-68
578538233,-2780,-224,15916,-102,143,-79
578541790,-2876,-232,15948,-94,61,-91
578545173,-2832,-312,16008,-104,190,-55
578548730,-2880,-212,15952,-95,56,-83
578552113,-2716,-208,16000,-40,149,-35
578555644,-2676,-220,16000,-125,112,-91
578559140,-2800,-308,16104,-56,92,-60
578562523,-2824,-276,16024,-107,181,-86
578566080,-2804,-252,15856,-77,82,-59
578569463,-2868,-244,15860,-73,152,-48
578572933,-2816,-172,15896,-90,39,-61
578576316,-2712,-180,16020,-70,178,-48
578579810,-2836,-272,16008,-111,90,-63
578583256,-2908,-76,15900,-50,119,-65
578586639,-2728,-120,16136,-102,149,-74
578590196,-2980,-168,15956,-91,81,-49
578593579,-2768,-152,15992,-67,202,-57
578597050,-2900,-228,15896,-91,45,-62
578600468,-2788,-228,16016,-72,123,-81
578603906,-2772,-236,16108,-120,82,-79
578607397,-2768,-236,15996,-83,86,-66
578610756,-2772,-240,15872,-113,139,-56
578614313,-2856,-188,15904,-78,49,-42
578617696,-2812,-164,16076,-106,175,-48
578621253,-2836,-260,15976,-111,66,-99
578624723,-2684,-328,16088,-79,151,-41
578628193,-2836,-160,16036,-82,55,-65
578631601,-2872,-112,16004,-60,116,-49
578635046,-2776,-264,15904,-108,88,-68
578638516,-2840,-200,15964,-105,64,-89
578641986,-2872,-204,15852,-99,177,-78
578645456,-2836,-220,16004,-91,70,-55
578648839,-2856,-276,16012,-60,168,-47
578652309,-2844,-252,15996,-137,127,-71
578655914,-2824,-204,16036,-69,97,-60
578659249,-2816,-164,15900,-123,170,-67
578662806,-2868,-200,15936,-87,62,-67
578666189,-2748,-244,15992,-83,176,-43
578669659,-2920,-256,15960,-83,31,-76
578673042,-2704,-264,15948,-63,122,-46
578676513,-2808,-240,15960,-91,59,-81
578679919,-2780,-216,16004,-59,129,-56
578683366,-2684,-204,15924,-123,140,-84
578686923,-2848,-148,15836,-92,88,-58
578690306,-2820,-284,15936,-55,163,-71
578693776,-2736,-152,15920,-122,55,-85
578697246,-2828,-276,16028,-64,131,-54
578700751,-2880,-216,15960,-93,77,-69
578704124,-2740,-228,15988,-62,63,-86
578707482,-2956,-240,15984,-113,158,-54
578711039,-2808,-204,15908,-91,43,-92
578714422,-2676,-152,16108,-63,171,-82
578717892,-2760,-264,16072,-105,75,-58
578721362,-2844,-228,16180,-57,123,-64
578724832,-2788,-228,16048,-103,76,-55
578728302,-2748,-200,16228,-84,91,-61
578731710,-2840,-264,15832,-119,117,-90
578735242,-2812,-180,15920,-78,51,-74
578738625,-2892,-172,16016,-106,173,-44
578742182,-2824,-276,15900,-108,37,-80
578745652,-2716,-144,15984,-59,148,-69
578749122,-2848,-236,15976,-95,131,-77
578752592,-2788,-316,15888,-77,99,-59
578756024,-2820,-256,15988,-105,153,-39
578759532,-2856,-192,16044,-85,68,-64
578762916,-2856,-248,15940,-52,170,-44
578766386,-2852,-276,16012,-104,81,-69
578769856,-2840,-224,15924,-60,110,-42
578773326,-2836,-192,15924,-126,109,-65
578776882,-2940,-228,15796,-83,62,-59
578780289,-2736,-252,15912,-81,169,-66
578783736,-2812,-224,15896,-117,64,-71
578787205,-2900,-216,16068,-54,150,-61
578790675,-2872,-252,16048,-132,107,-57
578794232,-2824,-244,16068,-55,121,-41
578797702,-2812,-140,15776,-127,160,-65
578801294,-2804,-300,16036,-68,71,-71
578804667,-2748,-168,16116,-77,163,-45
578808112,-2764,-188,16016,-105,75,-63
578811582,-2728,-236,16024,-83,113,-43
578815052,-2888,-280,16016,-99,90,-71
578818435,-2712,-176,16048,-78,127,-82
578821906,-2812,-120,16000,-118,174,-77
578825462,-2788,-256,16096,-56,84,-56
578828849,-2888,-208,15976,-85,204,-74
578832340,-2796,-292,16072,-77,29,-84
578835699,-2804,-140,15928,-32,166,-64
578839169,-2800,-180,16032,-97,66,-49
578842552,-2804,-160,16036,-76,86,-69
578845935,-2832,-244,15800,-105,114,-96
578849492,-2868,-340,16028,-77,48,-79
578852875,-2808,-308,15948,-102,190,-73
578856480,-2840,-236,16024,-97,63,-56
578859815,-2772,-256,15952,-55,162,-70
578863285,-2792,-276,16008,-94,66,-65
578866668,-2804,-284,15940,-64,106,-40
578870138,-2712,-208,15784,-118,103,-58
578873695,-2748,-116,15996,-115,68,-54
578877165,-2716,-260,15884,-108,153,-61
578880745,-2804,-248,16016,-67,66,-59
578884105,-2772,-168,15964,-56,141,-52
578887575,-2820,-260,16120,-112,96,-75
578891045,-2716,-192,15920,-60,114,-56
578894515,-2792,-128,15940,-111,114,-70
578898072,-2864,-260,15864,-88,84,-72
578901490,-2832,-172,15972,-82,181,-41
578904950,-2860,-304,15916,-66,61,-102
578908395,-2820,-176,15984,-49,118,-37
578911865,-2784,-272,16012,-114,87,-56
578915335,-2760,-248,16132,-78,75,-53
578918719,-2668,-200,15932,-104,169,-71
578922275,-2808,-184,16028,-87,19,-51
578925658,-2804,-216,15992,-98,193,-71
578929153,-2848,-160,16056,-96,95,-92
578932512,-2812,-276,15956,-68,155,-60
578935982,-2772,-148,16108,-103,73,-81
578939452,-2860,-244,16028,-48,115,-21
578942922,-2840,-164,16004,-99,89,-85
578946305,-2828,-232,16024,-55,52,-83
578949688,-2748,-336,15948,-63,175,-60
578953158,-2924,-248,15948,-105,60,-48
578956678,-2804,-340,15844,-56,186,-44
578960098,-2804,-216,15988,-104,90,-75
578963568,-2808,-212,15996,-70,125,-55
578967038,-2860,-284,16088,-112,160,-47
578970595,-2828,-156,15900,-71,73,-53
578973978,-2744,-148,16176,-77,171,-59
578977448,-2852,-276,15848,-105,40,-81
578980942,-2736,-256,15920,-63,125,-74
578984388,-2840,-156,16004,-109,71,-70
578987858,-2908,-148,15944,-45,128,-72
578991328,-2724,-176,16016,-117,146,-73
578994885,-2804,-276,15956,-104,38,-66
578998355,-2808,-228,16076,-69,163,-56
579001860,-2868,-312,16100,-116,105,-80
579005406,-2848,-256,16092,-67,123,-31
579008852,-2736,-176,15976,-107,140,-82
579012409,-2872,-220,16000,-79,52,-62
579015792,-2796,-204,16064,-77,179,-62
579019262,-2864,-220,15876,-101,65,-24
579022732,-2812,-240,15900,-54,119,-59
579026202,-2828,-192,16044,-104,44,-49
579029696,-2748,-228,15980,-56,136,-44
579033142,-2912,-176,16036,-126,134,-80
579036698,-2752,-136,15960,-93,82,-68
579040082,-2860,-192,15872,-104,189,-44
579043639,-2780,-228,15980,-87,47,-75
579047022,-2772,-244,15932,-57,142,-64
579050492,-2812,-268,15908,-106,66,-76
579053965,-2908,-216,16024,-54,97,-66
579057447,-2856,-144,15808,-113,120,-78
579060902,-2764,-204,15924,-99,65,-56
579064285,-2828,-152,16036,-98,143,-81
579067755,-2844,-196,15956,-83,49,-46
579071138,-2796,-204,15872,-75,146,-60
579074608,-2816,-232,16096,-124,84,-70
579078078,-2752,-316,15844,-67,97,-77
579081485,-2812,-296,15900,-139,78,-52
579084931,-2856,-228,15908,-91,65,-76
579088315,-2780,-176,15948,-109,165,-83
579091872,-2808,-188,16028,-98,37,-54
579095255,-2836,-352,16044,-81,195,-42
579098725,-2772,-184,16016,-85,81,-79
579102147,-2848,-280,15976,-55,133,-71
579105603,-2900,-188,15968,-104,179,-67
579109135,-2796,-236,16076,-77,91,-68
579112518,-2688,-232,15980,-79,184,-62
579115988,-2756,-172,15996,-80,69,-73
579119371,-2768,-184,15884,-56,95,-65
579122755,-2812,-180,15936,-108,94,-52
579126225,-2800,-288,15984,-46,119,-79
579129719,-2788,-152,16024,-115,155,-56
579133251,-2824,-260,16084,-78,65,-60
579136634,-2808,-252,16120,-96,192,-52
579140105,-2892,-208,15976,-83,59,-61
579143488,-2896,-224,15924,-72,148,-57
579146958,-2908,-232,15780,-114,92,-93
579150428,-2756,-252,15968,-57,100,-66
579153901,-2856,-96,16068,-121,109,-93
579157416,-2784,-208,16072,-81,69,-60
579160751,-2788,-272,15968,-91,165,-57
579164221,-2928,-160,16156,-100,63,-47
579167691,-2828,-264,16016,-63,178,-80
579171161,-2836,-232,15944,-128,117,-50
579174718,-2872,-220,15900,-66,77,-36
579178101,-2764,-220,15924,-123,104,-64
579181681,-2728,-212,15960,-77,50,-51
579185041,-2904,-248,16020,-91,184,-46
579188511,-2864,-232,15876,-110,54,-64
579191981,-2824,-204,16076,-55,180,-51
579195451,-2824,-312,16048,-92,102,-87
579198921,-2912,-212,15828,-61,153,-72
579202426,-2856,-160,16000,-126,130,-72
579205972,-2848,-252,16020,-86,80,-53
579209331,-2836,-264,15900,-81,189,-64
579212801,-2804,-268,15976,-70,71,-76
579216184,-2820,-260,15844,-64,166,-70
579219654,-2844,-216,15912,-106,62,-55
579223124,-2836,-220,15860,-75,106,-54
579226594,-2624,-212,16036,-92,77,-75
579230002,-2832,-204,15952,-70,88,-88
579233361,-2700,-200,16092,-106,130,-48
579236918,-2808,-212,16004,-93,61,-101
579240388,-2864,-212,16088,-104,176,-49
579243944,-2828,-220,16076,-103,74,-74
579247414,-2864,-184,16000,-52,145,-32
579250884,-2820,-140,16016,-106,127,-66
579254489,-2792,-232,15904,-76,78,-46
579257824,-2792,-236,16004,-107,179,-96
579261381,-2808,-148,16152,-71,67,-46
579264764,-2912,-272,15948,-78,171,-57
579268234,-2856,-208,15928,-125,33,-37
579271704,-2680,-228,15880,-70,172,-90
579275174,-2808,-152,15984,-148,104,-75
579278734,-2864,-176,15832,-59,98,-44
579282137,-2772,-220,15888,-115,163,-70
579285671,-2800,-268,15976,-80,93,-66
579289054,-2808,-192,16032,-81,163,-67
579292529,-2760,-220,16080,-77,48,-60
579295908,-2820,-124,15944,-50,119,-43
579299378,-2704,-180,16036,-121,83,-61
579302882,-2804,-208,15960,-89,55,-59
579306255,-2776,-224,16008,-110,147,-80
579309787,-2736,-172,16004,-90,59,-47
579313171,-2836,-212,15964,-104,159,-60
579316728,-2788,-196,15952,-114,84,-72
579320197,-2812,-260,15892,-60,161,-59
579323668,-2680,-196,16020,-146,80,-67
579327138,-2856,-200,15920,-55,132,-41
579330632,-2740,-168,15984,-96,145,-42
579334078,-2836,-256,15964,-85,63,-62
579337461,-2732,-172,16036,-111,148,-63
579341017,-2880,-144,15904,-102,17,-80
579344488,-2768,-252,15924,-60,147,-27
579347957,-2788,-140,15892,-138,81,-77
579351427,-2768,-156,16060,-62,142,-30
579354946,-2848,-244,16152,-116,114,-76
579358454,-2768,-144,16024,-78,59,-64
579361838,-2904,-72,15932,-103,184,-68
579365307,-2904,-216,16048,-77,58,-89
579368691,-2832,-332,16084,-69,162,-39
579372161,-2800,-196,16088,-75,26,-94
579375544,-2768,-220,15980,-52,109,-63
579379037,-2772,-300,15996,-127,78,-57
579382484,-2856,-316,15968,-78,81,-80
579385867,-2840,-220,15932,-119,162,-78
579389424,-2884,-252,15912,-86,77,-76
579392807,-2756,-244,15928,-88,156,-64
579396277,-2784,-164,16068,-101,71,-96
579399747,-2756,-220,16116,-67,122,-38
579403252,-2804,-176,15936,-116,156,-54
579406798,-2716,-196,15984,-53,76,-40
579410157,-2876,-248,16028,-133,156,-62
579413714,-2836,-212,16080,-92,29,-62
579417097,-2824,-232,15964,-91,192,-78
579420567,-2824,-196,16088,-113,73,-45
579424037,-2880,-288,16112,-73,154,-64
579427507,-2864,-192,16140,-105,142,-68
579431089,-2932,-264,15852,-84,88,-57
579434447,-2728,-204,16076,-97,181,-62
579437917,-2760,-296,15924,-77,60,-75
579441300,-2812,-232,16108,-49,151,-64
579444771,-2836,-172,16184,-103,43,-61
579448241,-2864,-228,16000,-68,90,-75
579451624,-2804,-140,16044,-112,74,-61
579455142,-2776,-204,16136,-76,58,-49
579458477,-2856,-316,15928,-120,187,-53
579462034,-2756,-300,16108,-105,43,-58
579465504,-2828,-240,15936,-75,152,-70
579468974,-2848,-300,15892,-104,32,-63
579472444,-2856,-288,16004,-66,96,-64
579475827,-2784,-256,15832,-112,86,-53
579479320,-2800,-220,16024,-64,65,-55
579482680,-2920,-180,15996,-129,170,-78
579486237,-2816,-200,16056,-94,38,-67
579489620,-2852,-172,16036,-54,174,-40
579493090,-2900,-224,16044,-92,95,-81
579496473,-2788,-224,16012,-82,114,-53
579499943,-2796,-180,15988,-119,164,-77
579503539,-2720,-156,15936,-78,77,-55
579506908,-2920,-276,16052,-51,168,-60
579510354,-2768,-256,16056,-120,33,-40
579513824,-2920,-284,15848,-60,126,-43
579517293,-2796,-232,15988,-111,91,-75
579520764,-2816,-132,15928,-80,139,-70
579524233,-2740,-236,16032,-114,145,-64
579527790,-2880,-164,16092,-102,57,-24
579531285,-2900,-328,16068,-88,177,-84
579534730,-2848,-148,16036,-70,54,-50
579538113,-2824,-260,16032,-58,165,-74
579541583,-2720,-252,15880,-120,72,-70
579545053,-2832,-260,15956,-67,108,-57
579548524,-2880,-200,16012,-128,112,-68
579552080,-2900,-308,16040,-97,50,-68
579555524,-2852,-312,15916,-110,153,-18
579559020,-2868,-316,15816,-92,70,-75
579562404,-2768,-264,15984,-87,167,-47
579565874,-2796,-164,15992,-102,98,-88
579569343,-2756,-240,15988,-63,79,-47
579572727,-2892,-188,16048,-95,193,-53
579576197,-2776,-180,16020,-104,64,-86
579579690,-2892,-176,15904,-69,161,-73
579583137,-2660,-216,15936,-88,66,-44
579586520,-2856,-228,15996,-86,158,-59
579589990,-2912,-244,16012,-123,82,-75
579593460,-2720,-180,15904,-63,130,-68
579596930,-2732,-296,16020,-116,164,-70
579600487,-2844,-228,16024,-63,76,-49
579603905,-2840,-200,15868,-89,173,-63
579607365,-2808,-240,16016,-72,61,-64
579610723,-2844,-284,15984,-43,107,-56
579614193,-2944,-248,15916,-126,90,-53
579617663,-2844,-212,16084,-98,84,-53
579621047,-2760,-160,15956,-109,151,-38
579624603,-2848,-212,16044,-102,49,-88
579628073,-2760,-212,16040,-92,202,-47
579631568,-2824,-252,15924,-93,44,-49
579634927,-2744,-160,16064,-56,136,-60
579638396,-2880,-240,15904,-101,108,-67
579641953,-2796,-108,16020,-55,119,-46
579645423,-2792,-184,15984,-117,162,-58
579648980,-2772,-172,16104,-70,73,-69
579652363,-2764,-220,16012,-66,158,-69
579655882,-2860,-252,15936,-93,73,-89
579659217,-2832,-220,15972,-77,149,-47
579662686,-2920,-308,16028,-105,80,-55
579666157,-2828,-272,16152,-67,103,-76
579669627,-2864,-192,15952,-88,162,-64
579673097,-2844,-248,15796,-79,48,-57
579676480,-2836,-172,15872,-58,138,-57
579679973,-2784,-172,15968,-102,43,-81
579683420,-2928,-144,16084,-61,107,-46
579686890,-2840,-240,16096,-129,125,-69
579690446,-2764,-292,15928,-74,67,-29
579693830,-2856,-228,15960,-84,196,-63
579697300,-2852,-200,16148,-118,56,-58
579700770,-2916,-204,15880,-88,140,-51
579704283,-2848,-196,15860,-116,88,-48
579707710,-2832,-204,16044,-90,91,-63
579711093,-2904,-212,15968,-119,189,-30
579714650,-2752,-224,15884,-85,49,-89
579718033,-2732,-352,15916,-92,146,-76
579721503,-2736,-272,16088,-96,56,-86
579724886,-2812,-172,16036,-71,170,-60
579728356,-2852,-256,16044,-106,85,-41
579731851,-2780,-240,16064,-70,132,-39
579735296,-2684,-328,16068,-114,160,-73
579738853,-2812,-204,15976,-78,72,-76
579742236,-2820,-304,15972,-40,159,-67
579745706,-2772,-204,16152,-107,52,-61
579749176,-2820,-220,15892,-77,109,-62
579752646,-2824,-136,15948,-103,131,-75
579756251,-2760,-156,15976,-89,44,-37
579759586,-2752,-124,15992,-99,194,-54
579763056,-2864,-192,15988,-117,56,-46
579766526,-2852,-184,15844,-88,164,-56
579769996,-2772,-220,15964,-119,113,-74
579773553,-2920,-184,15992,-85,95,-53
579776936,-2824,-132,16044,-94,166,-53
579780431,-2848,-196,15936,-95,64,-32
579783790,-2772,-188,15892,-87,172,-80
579787259,-2804,-320,16020,-104,63,-66
579790729,-2888,-176,16032,-76,164,-52
579794200,-2840,-236,15996,-111,106,-70
579797756,-2788,-276,15968,-80,68,-48
579801139,-2768,-168,16072,-105,166,-82
579804738,-2788,-232,15984,-108,35,-57
579808166,-2824,-180,16072,-54,179,-51
579811636,-2780,-236,15940,-89,38,-93
579815020,-2876,-168,15948,-64,153,-56
579818490,-2832,-224,15908,-112,73,-79
579821959,-2700,-196,16004,-62,105,-65
579825429,-2856,-220,15852,-118,106,-97
579829011,-2844,-252,15864,-78,59,-44
579832369,-2780,-140,15908,-125,168,-60
579835926,-2656,-204,16124,-96,56,-66
579839310,-2796,-272,16024,-76,174,-53
579842780,-2704,-168,15944,-116,111,-70
579846336,-2812,-184,16100,-71,100,-59
579849806,-2808,-236,16004,-118,147,-96
579853363,-2844,-184,15820,-80,68,-39
579856795,-2836,-216,15860,-84,185,-52
579860216,-2884,-232,16060,-73,44,-70
579863599,-2684,-200,16020,-84,158,-35
579867069,-2868,-208,15944,-103,63,-76
579870540,-2732,-168,16204,-74,103,-63
579874010,-2780,-232,16180,-120,102,-63
579877566,-2868,-228,15876,-95,78,-79
579880974,-2856,-204,16020,-113,168,-49
579884506,-2812,-228,16052,-87,31,-49
579887890,-2864,-276,16020,-49,151,-63
579891360,-2772,-196,16092,-73,69,-62
579894743,-2708,-352,16020,-56,110,-47
579898213,-2796,-152,16048,-105,85,-67
579901683,-2852,-232,15840,-82,75,-38
579905108,-2696,-176,15840,-112,168,-60
579908623,-2888,-128,16020,-100,44,-54
579912093,-2852,-100,15880,-102,175,-67
579915649,-2984,-300,15956,-108,61,-71
579919119,-2920,-248,15980,-75,192,-60
579922589,-2856,-256,16028,-140,94,-47
579926059,-2736,-284,16092,-39,121,-67
579929554,-2944,-172,16048,-116,161,-55
579933086,-2824,-184,15884,-75,59,-73
579936470,-2868,-200,15992,-51,186,-58
579939939,-2872,-268,15912,-78,60,-63
579943323,-2832,-104,15892,-64,137,-66
579946793,-2916,-264,15960,-113,68,-67
579950263,-2824,-180,16116,-65,84,-70
579953650,-2740,-176,15904,-125,126,-75
579957252,-2748,-212,16024,-84,89,-81
579960586,-2780,-236,16088,-82,150,-51
579964056,-2768,-304,15940,-87,63,-75
579967439,-2804,-252,16104,-72,109,-53
579970909,-2804,-260,15952,-105,104,-54
579974466,-2808,-228,15964,-103,69,-88
579977936,-2688,-176,15944,-103,160,-43
579981517,-2728,-264,15944,-123,63,-69
579984963,-2864,-120,15792,-71,168,-46
579988433,-2704,-188,15924,-118,80,-64
579991903,-2716,-268,15884,-80,109,-55
579995373,-2860,-280,16152,-121,155,-84
579998929,-2864,-224,15916,-57,69,-52
580002313,-2828,-272,15904,-78,179,-68
580005824,-2904,-236,15992,-75,44,-46
580009166,-2980,-204,15964,-66,136,-49
580012636,-2836,-236,15948,-96,59,-72
580016019,-2868,-256,15984,-65,80,-55
580019402,-2848,-172,15908,-116,140,-52
580022959,-2912,-144,15988,-87,46,-52
580026343,-2824,-176,16076,-88,177,-64
580029837,-2892,-236,16068,-112,94,-80
580033283,-2860,-264,16072,-63,158,-68
580036753,-2768,-208,15928,-100,52,-61
580040223,-2820,-180,16000,-75,87,-64
580043606,-2880,-156,16032,-114,152,-97
580047163,-2780,-216,16000,-89,47,-62
580050546,-2900,-228,16120,-77,203,-74
580054118,-2756,-216,16040,-104,53,-63
580057486,-2844,-184,15992,-64,167,-57
580060956,-2992,-200,16000,-131,93,-74
580064426,-2812,-244,16156,-71,116,-48
580067896,-2732,-184,15940,-117,194,-63
580071452,-2776,-176,16032,-68,34,-57
580074836,-2796,-248,15932,-71,166,-77
580078306,-2844,-272,16072,-85,69,-65
580081713,-2744,-268,15904,-65,117,-61
580085159,-2904,-152,16052,-116,86,-54
580088629,-2776,-196,16044,-92,53,-55
580092012,-2868,-220,16112,-102,142,-53
580095569,-2740,-316,16068,-94,45,-70
580098952,-2744,-188,15908,-89,144,-45
580102422,-2932,-268,15948,-109,51,-71
580105938,-2808,-256,15924,-67,126,-48
580109362,-2800,-244,16000,-94,71,-60
580112745,-2844,-340,15948,-81,84,-50
580116129,-2756,-120,15920,-110,136,-48
580119685,-2832,-168,15932,-95,80,-92
580123069,-2752,-204,15920,-97,164,-57
580126539,-2740,-200,16000,-106,39,-84
580130033,-2884,-144,15816,-71,152,-38
580133479,-2832,-236,16000,-103,115,-81
580137035,-2984,-200,15940,-78,87,-44
580140419,-2948,-180,15928,-105,200,-53
580143976,-2712,-192,15980,-89,46,-75
580147359,-2812,-216,15972,-79,137,-34
580150829,-2828,-188,16016,-115,45,-63
580154347,-2832,-200,16024,-61,119,-46
580157769,-2812,-252,15988,-118,125,-79
580161325,-2824,-240,16016,-57,51,-70
580164709,-2708,-220,15880,-112,183,-50
580168266,-2712,-188,15980,-75,53,-95
580171649,-2840,-256,15936,-49,175,-64
580175119,-2812,-276,15912,-96,61,-72
580178506,-2828,-168,15928,-55,111,-85
580181997,-2800,-160,16064,-139,90,-70
580185442,-2812,-204,15932,-53,54,-72
580188825,-2804,-296,16000,-111,162,-94
580192382,-2780,-136,15840,-58,53,-51
580195765,-2740,-196,15988,-85,209,-50
580199235,-2768,-268,15948,-123,73,-64
580202705,-2748,-260,16036,-55,130,-66
580206217,-2736,-160,16040,-120,139,-69
580209732,-2792,-172,15968,-72,66,-42
580213115,-2824,-188,15840,-57,197,-36
580216585,-2732,-168,16088,-80,61,-104
580220055,-2756,-176,15920,-72,167,-62
580223525,-2700,-160,15976,-99,70,-68
580226908,-2852,-184,15992,-60,129,-62
580230403,-2688,-292,15788,-116,138,-57
580233935,-2856,-172,15908,-57,96,-42
580237319,-2884,-228,16016,-76,184,-61
580240789,-2720,-220,15864,-92,42,-104
580244258,-2820,-192,16008,-74,149,-52
580247729,-2744,-252,16052,-90,65,-63
580251112,-2748,-220,15972,-65,86,-66
580254543,-2756,-184,15836,-109,121,-91
580258052,-2800,-164,16016,-105,69,-58
580261522,-2812,-124,16032,-126,175,-69
580265079,-2824,-172,15988,-94,55,-58
580268462,-2756,-276,15808,-100,175,-58
580272018,-2780,-256,15908,-125,104,-59
580275575,-2824,-168,15884,-71,111,-24
580279070,-2824,-116,16048,-78,161,-74
580282515,-2804,-188,15924,-90,64,-56
580285898,-2760,-224,16160,-81,136,-76
580289369,-2900,-240,15904,-97,76,-60
580292752,-2900,-204,15884,-83,155,-40
580296222,-2848,-164,16016,-102,89,-60
580299692,-2788,-236,15956,-74,110,-67
580303162,-2856,-232,15992,-107,163,-49
580306760,-2840,-220,16016,-108,53,-84
580310189,-2768,-224,15860,-80,181,-72
580313659,-2876,-224,15984,-82,51,-77
580317042,-2772,-200,15924,-57,142,-85
580320512,-2836,-164,16036,-116,93,-81
580323982,-2948,-308,16024,-87,48,-55
580327365,-2860,-252,16088,-104,159,-96
580330946,-2736,-308,15900,-81,47,-99
580334305,-2740,-148,15972,-79,211,-47
580337775,-2712,-272,15948,-90,76,-59
580341158,-2812,-72,16008,-71,123,-39
580344541,-2812,-272,15992,-115,111,-73
580348098,-2824,-200,15920,-103,43,-58
580351568,-2744,-168,16016,-48,182,-76
580355087,-2840,-240,16016,-82,56,-76
580358421,-2780,-232,15976,-85,187,-69
580361891,-2808,-164,16028,-140,56,-74
580365362,-2760,-212,16044,-58,131,-64
580368831,-2944,-300,16044,-106,143,-72
580372388,-2784,-192,16068,-94,63,-84
580375772,-2792,-216,15916,-76,152,-55
580379266,-2716,-184,15972,-92,41,-88
580382625,-2772,-232,15868,-56,112,-28
580386095,-2876,-164,16024,-123,89,-53
580389565,-2804,-140,15940,-113,85,-51
580393035,-2764,-276,16052,-137,152,-56
580396591,-2812,-148,15948,-83,27,-72
580399975,-2820,-200,15900,-73,164,-47
580403448,-2736,-92,16008,-105,83,-88
580406870,-2896,-192,15932,-57,111,-57
580410298,-2772,-228,15936,-137,76,-50
580413768,-2748,-216,16064,-71,79,-61
580417151,-2804,-256,16012,-117,181,-56
580420708,-2840,-312,16056,-74,19,-82
580424091,-2772,-96,15892,-64,206,-60
580427475,-2808,-116,16088,-96,80,-55
580430882,-2760,-248,16008,-57,123,-60
580434328,-2816,-248,15936,-91,145,-65
580437798,-2756,-192,16068,-80,79,-56
580441181,-2724,-212,16004,-101,165,-91
580444738,-2760,-268,15992,-111,52,-66
580448208,-2692,-216,15932,-62,111,-48
580451678,-2812,-236,16044,-130,72,-77
580455196,-2816,-288,16008,-68,89,-64
580458531,-2748,-184,15964,-130,158,-60
580462088,-2900,-148,16028,-90,63,-73
580465471,-2704,-136,15860,-62,143,-55
580468941,-2780,-228,15904,-90,39,-59
580472324,-2944,-172,15880,-53,108,-47
580475794,-2760,-260,16020,-146,90,-65
580479289,-2852,-164,15944,-63,62,-73
580482648,-2740,-184,16048,-132,154,-68
580486204,-2808,-324,16068,-98,33,-59
580489588,-2792,-184,16092,-94,192,-56
580493058,-2824,-240,16036,-92,58,-54
580496441,-2832,-164,15816,-82,160,-47
580499911,-2832,-260,15940,-93,39,-65
580503294,-2788,-172,16088,-64,113,-50
580506787,-2768,-92,15924,-129,89,-62
580510182,-2952,-176,16120,-81,49,-82
580513531,-2912,-228,15912,-115,143,-62
580517087,-2840,-216,16036,-96,51,-55
580520471,-2744,-216,16084,-69,156,-88
580523941,-2740,-324,15936,-133,97,-65
580527410,-2868,-84,15976,-68,108,-56
580530818,-2900,-132,16036,-106,64,-70
580534264,-2832,-232,15980,-74,46,-71
580537647,-2808,-228,15884,-103,150,-53
580541204,-2820,-260,16012,-84,44,-49
580544587,-2824,-316,15964,-90,180,-45
580548057,-2900,-248,15980,-102,84,-75
580551527,-2908,-120,15924,-58,149,-59
580555058,-2868,-292,16076,-81,139,-83
580558467,-2772,-220,15800,-72,64,-66
580561850,-2812,-240,16000,-109,204,-30
580565407,-2800,-204,16016,-76,42,-46
580568790,-2780,-236,15908,-83,156,-73
580572260,-2832,-256,16120,-96,59,-67
580575644,-2788,-256,15968,-81,165,-45
580579138,-2764,-144,15924,-116,105,-41
580582670,-2720,-256,15872,-93,52,-58
580586054,-2796,-276,16012,-112,176,-56
580589610,-2728,-280,16028,-88,58,-60
580592993,-2740,-184,15904,-65,173,-44
580596463,-2792,-180,15952,-85,50,-75
580599847,-2776,-208,15928,-53,121,-54
580603317,-2904,-192,15952,-135,95,-55
580606810,-2772,-208,16044,-79,48,-75
580610209,-2772,-176,16012,-116,157,-76
580613727,-2800,-192,15976,-115,43,-60
580617197,-2808,-76,15864,-64,171,-67
580620580,-2708,-172,15944,-126,84,-66
580624050,-2720,-288,16076,-59,116,-40
580627520,-2824,-164,16024,-135,136,-78
580631101,-2852,-228,15936,-47,85,-50
580634460,-2880,-340,16000,-104,181,-38
580638017,-2816,-172,16020,-99,52,-63
580641400,-2712,-256,15936,-81,191,-65
580644870,-2832,-184,16068,-100,31,-42
580648340,-2892,-240,15968,-42,160,-50
580651810,-2760,-200,16152,-132,107,-65
580655415,-2760,-204,16056,-80,62,-49
580658750,-2772,-192,15828,-114,163,-68
580662307,-2840,-268,15872,-74,54,-70
580665690,-2816,-184,16044,-58,163,-54
580669160,-2720,-168,16000,-108,45,-58
580672630,-2748,-260,15792,-79,117,-56
580676100,-2812,-240,16024,-120,72,-76
580679595,-2780,-252,16028,-82,69,-65
580682953,-2772,-292,16128,-112,122,-67
580686510,-2908,-312,15836,-96,25,-63
580689893,-2816,-96,16084,-77,190,-57
580693277,-2804,-284,15988,-98,64,-49
580696660,-2780,-232,15924,-68,135,-48
580700130,-2788,-308,15904,-114,90,-60
580703603,-2804,-228,16120,-62,87,-71
580707006,-2884,-204,16032,-110,118,-49
580710575,-2732,-244,16028,-84,52,-76
580713923,-2796,-228,15948,-72,179,-77
580717393,-2820,-196,16000,-118,65,-81
580720863,-2784,-216,16120,-50,170,-42
580724333,-2840,-236,15996,-100,87,-103
580727890,-2812,-292,15976,-54,110,-38
580731384,-2884,-172,15852,-108,143,-58
580734917,-2832,-244,15972,-73,78,-63
580738300,-2720,-252,16144,-103,186,-27
580741857,-2828,-284,15988,-97,59,-62
580745240,-2856,-312,16044,-61,133,-72
580748710,-2812,-220,15968,-95,80,-54
580752093,-2812,-232,16024,-66,76,-72
580755525,-2864,-148,15948,-131,130,-51
580759033,-2864,-152,15980,-80,81,-62
580762416,-2836,-256,15900,-112,165,-70
580765973,-2744,-204,15956,-85,57,-73
580769356,-2712,-196,15968,-66,163,-63
580772826,-2812,-192,16052,-130,53,-70
580776296,-2784,-268,15984,-71,81,-38
580779704,-2804,-192,16100,-129,133,-66
580783236,-2836,-172,16000,-83,54,-72
580786619,-2876,-248,15844,-91,164,-51
580790090,-2752,-188,15920,-124,41,-71
580793559,-2820,-248,15864,-56,176,-61
580797030,-2780,-172,16044,-86,119,-60
580800500,-2796,-124,15968,-80,96,-60
580803886,-2820,-196,15992,-96,159,-67
580807376,-2880,-168,15976,-86,50,-48
580810771,-2776,-284,16060,-90,169,-74
580814206,-2768,-212,15944,-94,59,-65
580817589,-2860,-148,16120,-65,171,-60
580821059,-2824,-224,15880,-120,93,-58
580824529,-2884,-240,16044,-49,133,-60
580827999,-2900,-312,16088,-126,152,-56
580831581,-2832,-216,15964,-59,84,-86
580834939,-2728,-260,16044,-93,196,-35
580838409,-2812,-232,15972,-82,33,-60
580841792,-2780,-132,16032,-52,148,-42
580845263,-2888,-120,15980,-105,74,-69
580848733,-2844,-280,15988,-69,85,-40
580852116,-2776,-228,16000,-142,125,-70
580855721,-2824,-268,15856,-85,82,-67
580859056,-2856,-244,15916,-108,152,-40
580862612,-2832,-212,15924,-85,56,-78
580865996,-2820,-216,15880,-92,175,-33
580869466,-2764,-192,15840,-88,63,-77
580872849,-2836,-240,15968,-75,150,-39
580876319,-2828,-228,15952,-93,62,-39
580879727,-2828,-188,16160,-77,68,-69
580883086,-2772,-172,15896,-108,133,-72
580886642,-2856,-256,15924,-105,50,-88
580890112,-2696,-164,16012,-86,180,-45
580893587,-2748,-176,16068,-83,75,-62
580896965,-2912,-244,15936,-58,149,-55
580900436,-2836,-204,15784,-121,119,-69
580904015,-2748,-220,15976,-69,84,-66
580907375,-2764,-264,16012,-119,127,-71
580910967,-2832,-128,16004,-85,76,-47
580914316,-2744,-124,15872,-114,178,-54
580917872,-2868,-228,15996,-93,44,-65
580921255,-2860,-256,15988,-76,172,-51
580924725,-2804,-208,15952,-111,89,-83
580928196,-2964,-324,15960,-55,126,-37
580931690,-2724,-236,15992,-132,140,-53
580935222,-2836,-284,15896,-103,77,-52
580938692,-2856,-184,15900,-83,177,-51
580942162,-2696,-240,16008,-91,53,-79
580945545,-2752,-212,15832,-62,128,-61
580949016,-2748,-264,15972,-91,58,-73
580952399,-2696,-208,15924,-66,74,-89
580955831,-2788,-172,15892,-109,105,-90
580959339,-2912,-320,16004,-107,73,-78
580962809,-2792,-240,15908,-95,178,-81
580966279,-2840,-256,15988,-107,61,-73
580969749,-2876,-172,15992,-54,160,-61
580973219,-2824,-256,16016,-137,102,-71
580976776,-2756,-252,16116,-76,140,-66
580980270,-2852,-156,15880,-97,173,-75
580983716,-2708,-260,15992,-92,70,-61
580987099,-2868,-140,15980,-74,177,-68
580990569,-2808,-152,16092,-91,56,-60
580993952,-2844,-144,15992,-67,155,-34
580997422,-2748,-364,15912,-99,79,-56
581000805,-2788,-284,15912,-76,126,-66
581004299,-2748,-236,16084,-94,132,-76
581007745,-2876,-148,16000,-79,63,-45
581011163,-2884,-296,15904,-72,169,-73
581014599,-2828,-192,16156,-99,54,-75
581017982,-2804,-272,15916,-38,151,-51
581021452,-2716,-164,16052,-116,56,-74
581024922,-2828,-152,15924,-62,151,-54
581028392,-2808,-136,15948,-131,122,-50
581031973,-2852,-260,15924,-104,47,-49
581035419,-2824,-180,15912,-105,174,-76
581038975,-2744,-204,16028,-104,61,-70
581042445,-2768,-264,15924,-91,156,-57
581045915,-2840,-176,15984,-89,88,-60
581049299,-2792,-256,15884,-57,120,-57
581052768,-2800,-204,15992,-115,90,-85
581056341,-2800,-180,15876,-90,61,-62
581059622,-2964,-256,15992,-96,184,-63
581063092,-2832,-180,15888,-83,58,-109
581066562,-2760,-244,16012,-75,153,-31
581070032,-2812,-116,15932,-113,76,-79
581073502,-2804,-248,15856,-54,146,-46
581076972,-2800,-220,15948,-115,142,-91
581080553,-2780,-240,16024,-59,65,-72
581083912,-2824,-208,15924,-77,196,-76
581087382,-2796,-272,15968,-86,25,-59
581090765,-2824,-160,16044,-60,158,-34
581094235,-2860,-128,16060,-94,68,-76
581097618,-2880,-276,16048,-57,162,-59
581101088,-2776,-196,16104,-114,91,-80
581104581,-2836,-172,15976,-67,105,-36
581108028,-2848,-216,15956,-122,186,-59
581111624,-2948,-196,16048,-101,26,-69
581115055,-2728,-212,16164,-74,164,-22
581118525,-2820,-144,15960,-95,71,-62
581121908,-2840,-176,15880,-58,147,-62
581125378,-2900,-184,15948,-87,72,-38
581128765,-2912,-132,16012,-68,64,-50
581132169,-2872,-88,15936,-122,132,-85
581135615,-2848,-176,15924,-81,59,-48
581138998,-2864,-180,16008,-94,166,-65
581142468,-2760,-268,16044,-88,70,-65
581145851,-2780,-184,16044,-56,126,-60
581149321,-2704,-296,15952,-87,58,-58
581152704,-2712,-128,16076,-82,114,-61
581156223,-2788,-200,16104,-108,130,-63
581159731,-2800,-212,15928,-81,52,-64
581163115,-2820,-196,15928,-108,165,-58
581166671,-2748,-212,15916,-102,53,-67
581170141,-2760,-156,15920,-46,146,-70
581173611,-2768,-264,15880,-140,127,-84
581177168,-2796,-300,15888,-63,92,-51
581180576,-2772,-212,15884,-120,176,-60
581184108,-2704,-252,15900,-95,23,-87
581187491,-2824,-204,15992,-72,177,-42
581190961,-2796,-200,16072,-101,42,-66
581194431,-2904,-232,16140,-43,134,-39
581197901,-2816,-248,16108,-118,92,-79
581201371,-2856,-220,15952,-95,89,-36
581204778,-2784,-216,16088,-128,176,-66
581208311,-2836,-212,15956,-86,25,-51
581211729,-2760,-256,15996,-77,192,-67
581215165,-2688,-188,16092,-93,42,-57
581218548,-2772,-156,16004,-46,130,-64
581222018,-2756,-176,16004,-112,90,-48
581225488,-2804,-232,16036,-75,55,-57
581228874,-2788,-208,15968,-109,126,-78
581232452,-2764,-164,16016,-71,52,-68
581235811,-2820,-140,16012,-94,182,-50
581239281,-2832,-224,16028,-115,75,-73
581242751,-2724,-204,16008,-42,144,-53
581246221,-2796,-200,15908,-129,152,-60
581249778,-2860,-196,16040,-67,65,-54
581253161,-2852,-276,15932,-81,167,-34
581256679,-2852,-176,16004,-74,70,-82
581260014,-2820,-220,15908,-69,159,-59
581263484,-2740,-148,15992,-112,90,-65
581266954,-2864,-120,16036,-46,124,-44
581270424,-2856,-120,16040,-117,131,-71
581273981,-2856,-260,16020,-77,43,-70
581277364,-2836,-328,15872,-78,186,-57
581280859,-2844,-148,15992,-94,33,-51
581284218,-2832,-140,15964,-89,138,-47
581287687,-2868,-328,16048,-95,79,-61
581291071,-2756,-152,16124,-77,68,-45
581294454,-2820,-244,15972,-87,158,-55
581297924,-2828,-212,15956,-97,53,-85
581301307,-2828,-192,16024,-81,164,-61
581304801,-2772,-216,16064,-79,58,-58
581308160,-2792,-244,16012,-52,155,-85
581311634,-2800,-176,15904,-100,63,-90
581315135,-2844,-252,16028,-60,86,-46
581318484,-2744,-76,15952,-119,100,-58
581321954,-2752,-148,16056,-85,75,-60
581325337,-2824,-348,15980,-128,148,-41
581328918,-2772,-212,16060,-108,58,-94
581332364,-2972,-176,16100,-62,176,-68
581335834,-2748,-212,16016,-140,112,-69
581339390,-2880,-192,16132,-70,100,-51
581342861,-2720,-168,15848,-97,168,-77
581346331,-2764,-304,15944,-81,72,-66
581349714,-2760,-224,16036,-47,149,-70
581353184,-2820,-276,15956,-109,42,-71
581356702,-2768,-204,15892,-72,104,-53
581360124,-2944,-176,16004,-106,128,-52
581363681,-2840,-180,15988,-110,55,-67
581367150,-2852,-216,15948,-108,162,-40
581370707,-2796,-192,16000,-107,82,-59
581374177,-2864,-204,15956,-64,167,-68
581377647,-2836,-272,16116,-126,124,-54
581381229,-2828,-292,15988,-68,118,-53
581384674,-2856,-244,15816,-100,179,-94
581388231,-2776,-204,15840,-76,69,-72
581391614,-2844,-276,15908,-76,179,-35
581395084,-2812,-256,15944,-78,51,-85
581398467,-2852,-256,15936,-50,147,-59
581401937,-2828,-192,15952,-119,120,-67
581405517,-2800,-256,15888,-82,74,-66
581408877,-2856,-212,15996,-107,159,-64
581412434,-2692,-208,16024,-97,39,-50
581415852,-2776,-204,15980,-75,169,-76
581419287,-2784,-284,16096,-96,27,-77
581422670,-2860,-240,16028,-81,127,-65
581426140,-2752,-124,16076,-103,69,-53
581429635,-2836,-200,16000,-64,50,-86
581432994,-2836,-136,15980,-122,143,-80
581436551,-2860,-296,15976,-105,53,-69
581440021,-2880,-176,15980,-75,198,-50
581443490,-2876,-204,15936,-97,56,-53
581446874,-2788,-272,16044,-81,168,-53
581450344,-2872,-216,15980,-110,104,-75
581453949,-2820,-200,15916,-68,122,-63
581457371,-2864,-208,15980,-116,160,-46
581460927,-2768,-208,16096,-87,61,-46
581464311,-2784,-184,16008,-65,180,-35
581467781,-2820,-248,15964,-100,58,-65
581471250,-2760,-244,16072,-38,128,-23
581474721,-2800,-220,15848,-112,71,-68
581478191,-2820,-120,15972,-47,91,-60
581481598,-2788,-184,15936,-121,109,-85
581485130,-2760,-264,15920,-76,95,-65
581488514,-2832,-232,15972,-136,189,-44
581492070,-2804,-184,15880,-76,86,-44
581495454,-2764,-120,16036,-77,203,-48
581498924,-2796,-268,15916,-79,55,-95
581502307,-2808,-244,15924,-65,130,-53
581505800,-2764,-192,16020,-87,72,-85
581509160,-2748,-208,15984,-85,97,-59
581512543,-2780,-224,16024,-106,120,-56
581516135,-2804,-192,16012,-99,60,-85
581519483,-2760,-240,15852,-89,172,-19
581522954,-2732,-220,16124,-80,53,-64
581526337,-2896,-264,16012,-72,152,-56
581529831,-2748,-264,15876,-83,61,-47
581533190,-2824,-288,16028,-78,100,-58
581536660,-2816,-276,15840,-109,118,-46
581540217,-2772,-164,16008,-77,69,-49
581543600,-2808,-192,15960,-98,148,-72
581547070,-2776,-176,16012,-94,59,-30
581550453,-2964,-264,15916,-75,162,-72
581553984,-2828,-288,15900,-123,96,-76
581557393,-2772,-280,15944,-70,92,-30
581560777,-2796,-224,15940,-120,91,-68
581564247,-2808,-212,15984,-85,60,-63
581567630,-2924,-164,15936,-95,141,-83
581571100,-2852,-244,15992,-96,78,-57
581574483,-2800,-148,15964,-89,166,-50
581577953,-2796,-288,16092,-100,60,-70
581581448,-2884,-248,16056,-55,143,-45
581584893,-2732,-196,15960,-120,107,-92
581588450,-2812,-192,15872,-65,88,-45
581591833,-2712,-160,15984,-96,168,-75
581595303,-2748,-204,15992,-92,59,-64
581598686,-2732,-256,15904,-99,150,-56
581602156,-2784,-260,16044,-90,62,-47
581605563,-2872,-280,15972,-82,184,-42
581609010,-2776,-276,16100,-121,72,-64
581612480,-2808,-80,15936,-66,122,-57
581615866,-2736,-272,16024,-123,149,-59
581619454,-2796,-156,16016,-81,93,-83
581622803,-2820,-128,15860,-81,178,-42
581626273,-2868,-220,15968,-61,54,-52
581629680,-2812,-184,16068,-62,148,-71
581633126,-2812,-272,16116,-114,80,-52
581636596,-2760,-212,15960,-61,66,-67
581639979,-2832,-232,16004,-120,124,-80
581643536,-2852,-240,16008,-90,50,-69
581646919,-2728,-204,16048,-84,175,-65
581650389,-2748,-220,16076,-98,41,-72
581653776,-2780,-240,16088,-67,170,-60
581657291,-2816,-196,15996,-97,33,-55
581660626,-2776,-200,16000,-79,110,-72
581664096,-2804,-148,15912,-108,126,-69
581667652,-2840,-220,15880,-53,46,-65
581671036,-2884,-312,16132,-106,168,-83
581674592,-2932,-232,15956,-89,53,-58
581677976,-2768,-136,16120,-78,170,-76
581681470,-2804,-260,15892,-106,122,-93
581685002,-2772,-288,15964,-69,88,-55
581688386,-2828,-192,16104,-128,169,-75
581691942,-2744,-184,15896,-67,60,-56
581695326,-2804,-308,15924,-89,167,-66
581698796,-2776,-292,16032,-89,41,-93
581702179,-2780,-228,16080,-92,160,-67
581705672,-2812,-252,15872,-105,89,-75
581709119,-2868,-232,16056,-44,130,-64
581712589,-2872,-188,16000,-85,171,-68
581716059,-2824,-164,15900,-96,96,-79
581719481,-2824,-272,15888,-74,192,-55
581722912,-2852,-96,16056,-85,44,-55
581726209,-2796,-224,16024,-76,172,-62
581729703,-2848,-176,16052,-130,79,-64
581733149,-2788,-284,15992,-64,126,-59
581736619,-2772,-296,15908,-118,152,-67
581740176,-2760,-140,15816,-86,71,-78
581743559,-2648,-124,15916,-120,176,-75
581747116,-2780,-204,15956,-94,53,-63
581750499,-2716,-188,16032,-55,145,-49
581754017,-2736,-284,15956,-100,51,-57
581757439,-2868,-232,16036,-71,86,-51
581760822,-2860,-244,15880,-130,107,-74
581764379,-2816,-204,15880,-104,64,-72
581767849,-2836,-276,16072,-94,152,-51
581771319,-2804,-232,16144,-114,56,-88
581774789,-2728,-228,16024,-75,161,-58
581778259,-2872,-232,16004,-129,123,-71
581781840,-2716,-264,16004,-72,86,-64
581785199,-2796,-232,15884,-92,153,-61
581788669,-2792,-100,15984,-86,45,-65
581792052,-2848,-172,15940,-76,184,-50
581795522,-2816,-256,16132,-102,68,-71
581798992,-2848,-236,15912,-64,108,-46
581802462,-2772,-232,15952,-110,97,-89
581805955,-2760,-200,15788,-85,79,-51
581809315,-2780,-160,16008,-131,145,-93
581812872,-2764,-232,16024,-91,98,-51
581816255,-2836,-240,16032,-114,148,-67
581819847,-2756,-120,16012,-86,48,-46
581823195,-2824,-252,16052,-74,151,-55
581826665,-2868,-200,15936,-121,61,-70
581830160,-2720,-268,15984,-71,77,-41
581833519,-2828,-232,15944,-124,99,-51
581836988,-2748,-168,16056,-88,49,-53
581840372,-2896,-184,16076,-97,150,-59
581843842,-2676,-212,15892,-97,70,-63
581847225,-2936,-248,15932,-54,152,-77
581850695,-2892,-184,16016,-103,50,-61
581854213,-2752,-220,15960,-77,105,-48
581857635,-2780,-104,16124,-116,63,-81
581861105,-2792,-176,15964,-83,62,-24
581864488,-2848,-168,15932,-90,188,-73
581867958,-2720,-368,16016,-86,51,-77
581871341,-2828,-204,15940,-47,171,-46
581874811,-2772,-336,16128,-118,94,-66
581878281,-2708,-204,15924,-54,136,-53
581881776,-2768,-232,15984,-111,159,-60
581885308,-2924,-196,16032,-79,51,-54
581888692,-2860,-192,15776,-65,167,-32
581892161,-2804,-168,15872,-89,35,-81
581895545,-2840,-216,16068,-81,178,-51
581899015,-2924,-216,15824,-99,70,-81
581902398,-2772,-272,15788,-61,152,-52
581905891,-2804,-148,15980,-116,103,-99
581909425,-2792,-212,16028,-83,96,-49
581912808,-2804,-192,15920,-73,188,-80
581916278,-2868,-212,15968,-91,76,-54
581919665,-2880,-192,16140,-50,158,-55
581923166,-2828,-208,15980,-100,67,-64
581926601,-2812,-200,15968,-56,99,-73
581930009,-2764,-204,15928,-100,74,-90
581933454,-2840,-188,15920,-64,92,-71
581936838,-2780,-240,15996,-138,130,-71
581940395,-2804,-204,16068,-64,102,-61
581943865,-2776,-324,15936,-69,168,-85
581947335,-2716,-256,16012,-86,71,-63
581950718,-2780,-264,15964,-61,140,-37
581954237,-2808,-336,16012,-90,54,-70
581957571,-2888,-292,15904,-82,94,-46
581960954,-2732,-260,15992,-104,116,-58
581964511,-2872,-188,15980,-89,47,-58
581967894,-2768,-240,15968,-93,184,-62
581971364,-2784,-296,15892,-104,53,-61
581974834,-2752,-248,15888,-68,175,-47
581978304,-2732,-212,15992,-117,104,-71
581981886,-2836,-232,16104,-44,101,-55
581985331,-2792,-200,16084,-93,173,-99
581988801,-2752,-296,15776,-99,80,-56
581992184,-2860,-272,16000,-86,164,-63
581995654,-2812,-152,15980,-96,29,-47
581999037,-2796,-256,15992,-57,180,-61
582002507,-2912,-228,15916,-115,118,-78
582006088,-2792,-200,16064,-75,103,-33
582009534,-2752,-260,15960,-110,146,-84
582013091,-2788,-224,16156,-76,41,-44
582016474,-2840,-188,15848,-60,176,-55
582019944,-2832,-368,15876,-100,57,-60
582023449,-2788,-232,15988,-77,124,-21
582026884,-2772,-116,15808,-103,71,-84
582030379,-2824,-204,16024,-64,86,-59
582033738,-2836,-192,15980,-111,95,-82
582037208,-2696,-212,15916,-77,53,-79
582040591,-2748,-292,15836,-95,190,-53
582044061,-2808,-156,16016,-114,68,-75
582047531,-2724,-192,15964,-55,138,-53
582051001,-2856,-248,16080,-118,67,-59
582054573,-2776,-188,15980,-59,89,-55
582057854,-2868,-244,15932,-111,110,-56
582061411,-2824,-156,15948,-98,48,-67
582064794,-2796,-232,16056,-95,181,-64
582068264,-2848,-240,16048,-116,44,-89
582071734,-2872,-120,16008,-66,124,-77
582075204,-2792,-176,16112,-104,102,-39
582078764,-2800,-208,15972,-87,110,-62
582082255,-2796,-224,15860,-87,185,-58
582085701,-2836,-176,15900,-84,79,-51
582089084,-2676,-140,16040,-76,143,-49
582092554,-2792,-228,15932,-88,49,-70
582095937,-2808,-220,16044,-63,98,-42
582099320,-2816,-176,16072,-120,98,-69
582102791,-2828,-276,16004,-62,112,-54
582106284,-2824,-236,16072,-79,173,-52
582109730,-2696,-164,16088,-121,36,-76
582113200,-2812,-212,15916,-50,167,-43
582116671,-2884,-232,15908,-91,59,-78
582120054,-2864,-256,15992,-54,118,-65
582123563,-2844,-200,16000,-111,98,-62
582126994,-2880,-172,15956,-69,74,-69
582130402,-2808,-204,16008,-113,159,-52
582133934,-2784,-256,15996,-69,29,-71
582137317,-2912,-200,16056,-86,177,-37
582140787,-2772,-256,16036,-108,72,-46
582144257,-2880,-196,15952,-87,141,-82
582147727,-2856,-300,15896,-96,127,-78
582151197,-2796,-220,16044,-68,108,-61
582154715,-2812,-160,15968,-94,177,-93
582158137,-2880,-164,15884,-60,74,-51
582161520,-2876,-284,16044,-104,164,-46
582165077,-2824,-100,16000,-88,15,-78
582168460,-2836,-160,15988,-83,122,-65
582171930,-2780,-172,16004,-102,127,-66
582175487,-2904,-188,15936,-83,88,-95
582178895,-2796,-124,16064,-111,145,-86
582182427,-2872,-248,15984,-79,65,-64
582185810,-2956,-248,15968,-57,167,-51
582189280,-2828,-124,16044,-96,68,-75
582192664,-2748,-124,16020,-55,111,-61
582196133,-2736,-164,15892,-106,81,-55
582199604,-2884,-200,15976,-65,73,-68
582202987,-2816,-168,16092,-123,132,-80
582206567,-2828,-260,16036,-118,54,-70
582210014,-2848,-252,16012,-62,180,-61
582213483,-2724,-220,16012,-115,81,-98
582216954,-2716,-216,15936,-57,131,-43
582220424,-2820,-224,15816,-116,101,-73
582224015,-2692,-264,16024,-69,74,-35
582227363,-2816,-300,16064,-105,158,-75
582230945,-2864,-124,16048,-102,45,-70
582234390,-2916,-200,16008,-64,180,-39
582237860,-2916,-172,16016,-114,57,-33
582241330,-2740,-280,15932,-76,125,-54
582244800,-2836,-216,15928,-127,95,-55
582248270,-2976,-228,15956,-90,44,-92
582251654,-2788,-192,15924,-93,162,-59
582255172,-2944,-144,15948,-103,61,-73
582258594,-2824,-304,16056,-53,170,-30
582262063,-2848,-252,15948,-105,52,-61
582265533,-2824,-312,15908,-61,116,-52
582269004,-2868,-224,16000,-99,86,-82
582272387,-2828,-204,15896,-57,62,-74
582275770,-2764,-172,16004,-93,154,-60
582279264,-2848,-288,15880,-75,40,-45
582282623,-2792,-204,15956,-63,178,-49
582286093,-2796,-272,16004,-106,68,-63
582289563,-2788,-216,16048,-77,106,-65
582293033,-2800,-236,16000,-104,110,-69
582296590,-2728,-220,16064,-89,46,-52
582299973,-2836,-232,16124,-117,142,-74
582303533,-2868,-144,15924,-98,29,-54
582306936,-2820,-268,15920,-95,197,-87
582310383,-2760,-312,16080,-91,52,-71
582313767,-2764,-156,15928,-68,162,-44
582317237,-2792,-220,15920,-108,93,-106
582320793,-2812,-216,15912,-54,120,-51
582324298,-2860,-92,15892,-111,147,-45
582327733,-2896,-236,15832,-87,70,-75
582331141,-2744,-248,16044,-49,162,-60
582334586,-2832,-232,15904,-97,46,-56
582337970,-2924,-232,15956,-80,117,-53
582341440,-2712,-232,15948,-107,81,-63
582344910,-2768,-180,15948,-56,99,-41
582348293,-2832,-232,16016,-115,93,-53
582351763,-2764,-248,15944,-50,108,-22
582355281,-2796,-196,15900,-100,202,-73
582358790,-2824,-172,15928,-68,65,-63
582362173,-2784,-212,16124,-55,163,-70
582365643,-2800,-192,15980,-81,53,-67
582369026,-2840,-248,16020,-63,116,-66
582372496,-2764,-108,16000,-96,79,-75
582375879,-2808,-208,15824,-69,65,-67
582379287,-2740,-204,16028,-115,157,-67
582382820,-2908,-252,15972,-81,32,-59
582386203,-2684,-176,15980,-66,183,-66
582389673,-2804,-252,15976,-93,45,-70
582393056,-2780,-288,16024,-80,136,-54
582396526,-2904,-236,15840,-113,73,-77
582399996,-2892,-224,15904,-70,108,-49
582403470,-2840,-284,16100,-128,120,-56
582407046,-2792,-148,15916,-106,53,-54
582410493,-2800,-248,15960,-98,172,-68
582413963,-2824,-172,16004,-108,56,-71
582417433,-2828,-196,15928,-64,159,-72
582420903,-2792,-160,16128,-105,116,-87
582424495,-2776,-248,15936,-53,102,-64
582427929,-2784,-232,15820,-119,171,-96
582431511,-2780,-272,15948,-86,55,-56
582434870,-2732,-284,15892,-41,155,-43
582438339,-2772,-240,16088,-109,69,-62
582441809,-2868,-200,16168,-69,101,-29
582445279,-2880,-180,15860,-106,101,-62
582448836,-2776,-260,16100,-100,74,-39
582452306,-2800,-240,15936,-110,152,-62
582455912,-2788,-220,16156,-106,53,-70
582459333,-2716,-224,15864,-79,170,-58
582462803,-2800,-208,15992,-139,88,-72
582466273,-2784,-240,16012,-47,139,-39
582469743,-2800,-244,16052,-130,123,-65
582473300,-2800,-208,16132,-61,91,-57
582476683,-2736,-244,15984,-91,160,-60
582480178,-2760,-184,15980,-75,38,-61
582483536,-2876,-136,16024,-84,142,-22
582487006,-2760,-252,16004,-111,40,-74
582490476,-2800,-160,15948,-49,94,-57
582493864,-2880,-232,15960,-120,81,-75
582497329,-2820,-236,16032,-74,53,-88
582500713,-2776,-256,16156,-121,164,-47
582504293,-2916,-180,15932,-75,60,-37
582507653,-2836,-184,16028,-102,182,-48
582511210,-2848,-192,16000,-96,52,-57
582514593,-2764,-268,16028,-64,124,-64
582518063,-2776,-184,16096,-97,61,-50
582521446,-2900,-156,16104,-61,73,-44
582524864,-2860,-252,15872,-98,129,-94
582528303,-2764,-232,15992,-86,50,-74
582531707,-2852,-228,16024,-117,183,-57
582535239,-2784,-232,16104,-122,67,-45
582538709,-2732,-220,15920,-36,171,-79
582542179,-2776,-248,15920,-106,107,-89
582545736,-2800,-244,16084,-75,97,-58
582549119,-2860,-208,15848,-121,159,-72
582552676,-2764,-284,15948,-90,70,-60
582556120,-2844,-252,15812,-57,167,-27
582559529,-2840,-260,16092,-99,41,-60
582562912,-2884,-216,16012,-60,162,-48
582566383,-2696,-260,16112,-110,95,-107
582569939,-2716,-236,16052,-73,117,-50
582573409,-2764,-268,15992,-99,151,-57
582576879,-2668,-240,16092,-95,77,-44
582580287,-2768,-188,16040,-82,175,-51
582583733,-2828,-148,15912,-99,82,-50
582587116,-2700,-204,16032,-69,141,-26
582590586,-2748,-232,15904,-101,69,-68
582594056,-2908,-112,16012,-69,111,-53
582597526,-2812,-208,15940,-123,98,-61
582600996,-2744,-244,16088,-69,46,-54
582604402,-2832,-144,15976,-126,177,-75
582607936,-2728,-204,16088,-80,56,-70
582611319,-2792,-240,16000,-75,171,-69
582614789,-2812,-140,15992,-98,50,-68
582618172,-2828,-232,16000,-70,113,-51
582621642,-2896,-212,15892,-111,86,-84
582625147,-2844,-220,15884,-83,78,-35
582628499,-2872,-256,16036,-122,159,-93
582632077,-2748,-176,16000,-110,50,-72
582635522,-2880,-240,15896,-75,185,-40
582638992,-2812,-240,15996,-99,67,-72
582642375,-2924,-248,15972,-72,125,-33
582645846,-2756,-244,16100,-93,130,-71
582649316,-2836,-232,15980,-72,101,-62
582652786,-2904,-184,15952,-86,147,-45
582656304,-2828,-132,15924,-90,54,-74
582659639,-2764,-284,15992,-84,180,-32
582663109,-2848,-188,15900,-101,54,-55
582666579,-2676,-328,16016,-58,176,-64
582670049,-2792,-216,15972,-106,106,-68
582673605,-2820,-216,16000,-75,89,-45
582676989,-2888,-156,16024,-78,165,-50
582680483,-2776,-196,15860,-87,32,-72
582683842,-2812,-220,15940,-72,143,-49
582687312,-2804,-208,15964,-106,81,-83
582690782,-2728,-204,15980,-70,82,-73
582694165,-2832,-188,16004,-93,119,-51
582697635,-2748,-132,16096,-98,37,-68
582701018,-2752,-136,16064,-100,184,-57
582704598,-2900,-300,15980,-106,67,-58
582708045,-2924,-212,16080,-25,170,-72
582711515,-2748,-236,15960,-117,108,-87
582715072,-2928,-228,16124,-89,120,-34
582718542,-2780,-184,16128,-92,183,-46
582722012,-2840,-216,16020,-91,53,-72
582725430,-2764,-260,15920,-51,149,-65
582728890,-2860,-156,15996,-77,45,-70
582732248,-2788,-244,16016,-74,146,-82
582735718,-2816,-280,15940,-108,131,-89
582739275,-2836,-160,16100,-80,77,-37
582742659,-2880,-192,15984,-65,164,-40
582746128,-2876,-224,15920,-99,61,-95
582749512,-2932,-216,16016,-73,128,-57
582752982,-2956,-220,15936,-113,41,-44
582756500,-2892,-236,15908,-57,69,-94
582759835,-2888,-184,15956,-104,164,-29
582763392,-2844,-184,15864,-98,64,-56
582766775,-2716,-148,15956,-50,167,-35
582770245,-2868,-256,16028,-99,62,-49
582773628,-2800,-144,15952,-74,90,-40
582777012,-2844,-292,15900,-118,98,-72
582780506,-2820,-152,15848,-77,57,-42
582783865,-2792,-156,15908,-119,134,-55
582787421,-2864,-328,15960,-81,79,-68
582790805,-2820,-264,16020,-90,182,-69
582794275,-2872,-88,15992,-107,76,-75
582797658,-2712,-184,16104,-77,169,-74
582801128,-2796,-244,15964,-114,42,-75
582804621,-2792,-208,16036,-87,85,-76
582807981,-2792,-144,15848,-139,142,-78
582811538,-2736,-176,15872,-90,78,-57
582814921,-2792,-232,15900,-89,169,-70
582818391,-2916,-248,16064,-94,70,-63
582821775,-2784,-204,15908,-75,154,-53
582825248,-2688,-288,16068,-109,95,-64
582828753,-2952,-240,16084,-50,66,-51
582832122,-2740,-168,16208,-95,177,-53
582835568,-2872,-260,16000,-105,63,-51
582839038,-2756,-256,16032,-69,163,-72
582842508,-2632,-184,15964,-86,50,-53
582845891,-2816,-252,15920,-65,199,-51
582849361,-2824,-284,16036,-113,98,-68
582852831,-2792,-212,16044,-62,116,-50
582856349,-2756,-248,16112,-117,162,-61
582859858,-2792,-272,16052,-64,74,-63
582863241,-2832,-152,15936,-94,188,-59
582866711,-2796,-292,16096,-82,38,-56
582870094,-2896,-192,16092,-77,157,-80
582873564,-2820,-200,16108,-81,54,-66
582876948,-2768,-216,16048,-65,64,-65
582880355,-2792,-228,15908,-109,125,-56
582883887,-2904,-228,16080,-108,70,-71
582887358,-2828,-160,15920,-100,152,-78
582890914,-2928,-212,16024,-116,30,-81
582894384,-2792,-160,15908,-72,162,-50
582897854,-2760,-192,15860,-113,128,-51
582901411,-2824,-172,15884,-62,95,-39
582904817,-2824,-192,15892,-110,170,-60
582908351,-2820,-248,15836,-83,45,-49
582911734,-2892,-244,15892,-49,159,-49
582915204,-2888,-236,16060,-113,44,-35
582918674,-2792,-172,15916,-59,144,-40
582922144,-2752,-240,15944,-129,105,-51
582925701,-2828,-188,15900,-105,41,-84
582929214,-2800,-216,15936,-78,171,-61
582932641,-2824,-216,16024,-105,33,-78
582936111,-2716,-284,16000,-54,174,-40
582939581,-2944,-144,15964,-96,46,-79
582942964,-2800,-228,16068,-59,88,-46
582946347,-2736,-248,15976,-137,110,-67
582949904,-2756,-228,15900,-88,42,-60
582953291,-2816,-280,15936,-122,176,-72
582956894,-2720,-180,16056,-78,20,-54
582960228,-2888,-176,15948,-94,180,-58
582963697,-2896,-204,16048,-123,63,-38
582967168,-2880,-136,15968,-57,131,-70
582970637,-2868,-136,15920,-138,127,-75
582974194,-2732,-228,15964,-77,66,-67
582977578,-2788,-160,15972,-87,172,-43
582981072,-2740,-144,16076,-82,48,-81
582984431,-2760,-212,15844,-57,145,-48
582987901,-2796,-256,15996,-88,54,-72
582991284,-2936,-204,16032,-71,164,-25
582994754,-2772,-316,15892,-115,133,-99
582998311,-2916,-232,16056,-67,106,-52
583001781,-2804,-104,15932,-95,173,-55
583005275,-2824,-260,16056,-104,72,-60
583008721,-2760,-232,16012,-78,173,-50
583012191,-2856,-316,16040,-81,30,-77
583015574,-2888,-144,16052,-65,98,-51
583018957,-2776,-148,15896,-136,114,-66
583022514,-2976,-248,16052,-89,66,-61
583025897,-2888,-168,15936,-115,172,-103
583029582,-2812,-136,15956,-105,38,-53
583033011,-2832,-184,15828,-61,194,-71
583036481,-2784,-352,15916,-108,85,-67
583039951,-2684,-192,15984,-97,117,-50
583043421,-2852,-268,16036,-133,149,-60
583046978,-2764,-272,16132,-61,71,-62
583050361,-2764,-272,16088,-85,210,-69
583053933,-2856,-240,15940,-94,33,-51
583057214,-2820,-228,16088,-75,158,-77
583060684,-2808,-196,15900,-97,46,-44
583064067,-2820,-160,16160,-87,163,-73
583067537,-2784,-176,16084,-118,114,-74
583071094,-2784,-204,15936,-96,74,-80
583074477,-2844,-184,16112,-95,160,-80
583077947,-2884,-228,16020,-78,63,-42
583081355,-2864,-188,15908,-65,175,-72
583084801,-2828,-172,16076,-96,66,-56
583088184,-2912,-220,16040,-38,104,-75
583091654,-2772,-216,16208,-107,65,-73
583095124,-2916,-192,16152,-75,58,-75
583098507,-2848,-156,16048,-115,153,-80
583102064,-2792,-240,15896,-112,48,-74
583105558,-2792,-260,16020,-97,147,-35
583109004,-2720,-248,15992,-106,77,-74
583112474,-2764,-296,15996,-63,138,-66
583115944,-2780,-200,15952,-119,157,-58
583119501,-2732,-208,15984,-86,78,-53
583122884,-2760,-240,15936,-80,216,-89
583126354,-2716,-156,16064,-82,29,-61
583129782,-2748,-220,15932,-110,183,-47
583133294,-2780,-220,15816,-97,57,-83
583136677,-2860,-176,15912,-70,165,-44
583140147,-2912,-168,15948,-119,119,-54
583143704,-2764,-140,16004,-69,105,-35
583147174,-2764,-264,16044,-113,177,-59
583150731,-2880,-156,15912,-74,49,-66
583154162,-2856,-140,15944,-58,170,-69
583157584,-2812,-220,15896,-96,40,-81
583160967,-2804,-152,16052,-55,114,-50
583164437,-2872,-204,16144,-116,105,-97
583167994,-2896,-288,15804,-79,73,-54
583171377,-2728,-272,16036,-122,145,-52
583174934,-2704,-260,15892,-88,67,-33
583178320,-2924,-184,15936,-63,193,-56
583181812,-2812,-204,16056,-102,63,-74
583185257,-2820,-248,16104,-71,152,-55
583188727,-2820,-220,16012,-137,133,-73
583192284,-2828,-256,16008,-78,90,-57
583195667,-2812,-184,16076,-99,176,-71
583199137,-2832,-212,15900,-81,59,-82
583202520,-2912,-228,16036,-91,147,-52
583206015,-2880,-264,16000,-110,37,-77
583209460,-2820,-128,16048,-53,142,-51
583212930,-2748,-204,15840,-108,113,-58
583216487,-2752,-236,15992,-67,123,-40
583219957,-2856,-264,16012,-121,149,-58
583223514,-2728,-268,15988,-87,80,-84
583226897,-2744,-128,16140,-70,168,-36
583230409,-2780,-200,15852,-102,65,-61
583233837,-2800,-268,16120,-57,79,-43
583237220,-2700,-220,15884,-127,77,-95
583240690,-2812,-232,15984,-56,60,-53
583244074,-2832,-248,15972,-123,164,-62
583247630,-2824,-212,16012,-76,63,-66
583251013,-2812,-240,16048,-67,159,-47
583254532,-2852,-208,16028,-130,73,-63
583257953,-2840,-336,16096,-65,124,-42
583261423,-2812,-224,15980,-103,160,-70
583264980,-2780,-188,15924,-81,48,-51
583268363,-2760,-160,15928,-82,171,-39
583271833,-2660,-292,16012,-70,6,-60
583275130,-2756,-160,15916,-60,173,-65
583278603,-2828,-172,15888,-117,78,-40
583282094,-2856,-140,15864,-61,133,-70
583285540,-2840,-220,15912,-99,142,-71
583289010,-2816,-284,15964,-78,56,-47
583292393,-2924,-216,16100,-73,160,-59
583295863,-2772,-228,15932,-102,73,-83
583299333,-2748,-220,15948,-66,114,-48
583302803,-2844,-156,15896,-91,83,-95
583306211,-2828,-172,16032,-70,76,-98
583309570,-2828,-120,15988,-121,148,-75
583313127,-2904,-140,16004,-76,76,-67
583316510,-2776,-236,16020,-88,171,-55
583319980,-2760,-312,15912,-91,67,-69
583323363,-2804,-272,15816,-66,150,-51
583326833,-2700,-176,15900,-117,67,-93
583330326,-2788,-216,15932,-75,89,-68
583333721,-2796,-188,16068,-126,112,-81
583337243,-2924,-228,15928,-74,60,-82
583340626,-2736,-152,16016,-112,184,-84
583344183,-2992,-288,15952,-100,67,-57
583347653,-2840,-84,15920,-62,145,-74
583351036,-2836,-208,15964,-101,80,-63
583354555,-2772,-136,15936,-62,144,-42
583357976,-2808,-144,15992,-106,152,-47
583361533,-2764,-264,15988,-72,88,-63
583364916,-2732,-228,15892,-111,132,-71
583368473,-2824,-136,16032,-87,68,-69
583371856,-2880,-208,16068,-53,172,-51
583375326,-2716,-152,16032,-107,82,-59
583378821,-2924,-304,16008,-65,142,-56
583382266,-2800,-220,15916,-128,147,-57
583385823,-2836,-160,15972,-90,91,-68
583389206,-2800,-148,15980,-67,188,-61
583392676,-2788,-176,16032,-107,35,-50
583396146,-2836,-148,15860,-72,149,-38
583399616,-2908,-240,15980,-113,56,-103
583403173,-2800,-192,15948,-92,69,-52
583406581,-2752,-260,16092,-104,158,-86
583410113,-2880,-188,15856,-106,76,-61
583413583,-2756,-204,15860,-84,152,-84
583417053,-2808,-184,16044,-112,83,-60
583420523,-2676,-148,16000,-68,109,-57
583423993,-2696,-136,15924,-119,160,-74
583427550,-2940,-272,16100,-78,59,-72
583430956,-2772,-248,16016,-60,189,-60
583434438,-2776,-252,15960,-100,41,-72
583437873,-2804,-304,16020,-63,102,-66
583441343,-2788,-256,15988,-116,124,-65
583444900,-2852,-256,16108,-78,78,-62
583448283,-2860,-208,15972,-104,117,-62
583451840,-2744,-232,15988,-78,56,-73
583455272,-2876,-192,16076,-89,186,-63
583458693,-2868,-192,16000,-117,71,-94
583462163,-2716,-220,16000,-55,146,-52
583465633,-2920,-272,16028,-100,105,-74
583469190,-2884,-144,15856,-89,95,-38
583472573,-2852,-144,16080,-113,173,-60
583476130,-2748,-240,16024,-82,49,-70
583479537,-2788,-244,15944,-59,185,-18
583482983,-2752,-256,15864,-105,64,-82
583486453,-2792,-112,15972,-72,108,-71
583489923,-2868,-264,15872,-106,101,-70
583493480,-2908,-176,16064,-95,77,-58
583496863,-2724,-160,16076,-132,134,-52
583500420,-2828,-232,15988,-84,61,-84
583503827,-2972,-300,15956,-75,171,-45
583507273,-2836,-304,16004,-101,56,-67
583510743,-2804,-120,16004,-42,93,-50
583514126,-2848,-208,15996,-113,107,-64
583517683,-2764,-332,16056,-75,72,-66
583521066,-2796,-152,16028,-114,151,-57
583524623,-2812,-208,16072,-120,45,-68
583528093,-2716,-232,15980,-68,166,-61
583531586,-2856,-244,16060,-112,61,-61
583535068,-2916,-196,15932,-57,142,-57
583538503,-2784,-148,16104,-123,165,-75
583542060,-2716,-280,16028,-68,94,-51
583545443,-2824,-152,15964,-56,191,-38
583548913,-2800,-148,16040,-94,34,-79
583552296,-2820,-180,15988,-67,154,-35
583555827,-2764,-232,15944,-104,57,-61
583559236,-2856,-244,15956,-78,87,-69
583562619,-2740,-192,15940,-125,117,-63
583566176,-2780,-168,16156,-86,45,-81
583569560,-2720,-176,16024,-85,187,-51
583573029,-2716,-228,16036,-105,59,-47
583576500,-2748,-180,15992,-68,147,-70
583579994,-2860,-252,16000,-89,55,-62
583583353,-2720,-232,15908,-63,100,-32
583586823,-2716,-160,15964,-112,107,-39
583590380,-2868,-248,15820,-104,42,-67
583593849,-2816,-232,15984,-96,194,-54
583597319,-2748,-120,16016,-99,42,-73
583600703,-2792,-208,16092,-58,177,-41
583604197,-2728,-172,16016,-109,94,-58
583607643,-2744,-268,15924,-69,151,-44
583611113,-2696,-216,16036,-119,137,-55
583614670,-2824,-168,15984,-99,78,-48
583618053,-2768,-196,15868,-74,175,-51
583621523,-2768,-152,15996,-93,44,-62
583624906,-2872,-268,16000,-58,136,-69
583628379,-2664,-324,15864,-88,91,-58
583631783,-2752,-324,15936,-65,116,-46
583635264,-2780,-168,15872,-121,150,-79
583638786,-2816,-144,15960,-88,68,-60
583642169,-2864,-120,15888,-85,186,-61
583645639,-2864,-176,15996,-91,45,-62
583649023,-2780,-168,15972,-45,139,-65
583652493,-2776,-264,15880,-131,49,-67
583656011,-2820,-148,15972,-69,76,-53
583659346,-2812,-248,16116,-89,184,-53
583662816,-2812,-228,16108,-87,41,-66
583666199,-2844,-280,16044,-79,175,-39
583669669,-2884,-172,15936,-102,31,-54
583673139,-2744,-272,16024,-61,118,-42
583676609,-2844,-252,16100,-91,116,-77
583680104,-2752,-300,15972,-67,37,-49
583683462,-2836,-368,16048,-130,162,-82
583687019,-2836,-92,15928,-84,66,-95
583690316,-2736,-164,15840,-58,171,-35
583693786,-2800,-244,16028,-104,83,-78
583697255,-2788,-240,16048,-43,127,-57
583700726,-2840,-284,15988,-103,141,-53
583704307,-2712,-288,15936,-37,80,-52
583707666,-2764,-188,16044,-96,165,-57
583711135,-2820,-240,16036,-86,45,-40
583714519,-2852,-248,15916,-118,185,-86
583718076,-2736,-180,15888,-115,100,-54
583721632,-2724,-212,16004,-77,68,-45
583725016,-2832,-228,16136,-111,133,-70
583728576,-2832,-176,15964,-88,91,-102
583732065,-2828,-204,15972,-83,156,-63
583735547,-2764,-208,15940,-98,79,-64
583738895,-2800,-176,15996,-51,149,-44
583742365,-2792,-272,15920,-101,74,-78
583745836,-2900,-248,15984,-83,101,-71
583749305,-2848,-120,16036,-108,124,-54
583752862,-2756,-220,15964,-87,84,-68
583756294,-2824,-144,15980,-90,188,-42
583759715,-2720,-256,16152,-108,42,-60
583763185,-2704,-188,16008,-64,170,-44
583766656,-2788,-292,16004,-104,111,-59
583770212,-2788,-152,16000,-44,106,-52
583773682,-2832,-200,15824,-136,164,-62
583777239,-2748,-156,15952,-68,55,-72
583780647,-2816,-272,16016,-63,160,-65
583784092,-2880,-108,15800,-97,37,-83
583787476,-2772,-200,16072,-57,122,-61
583790945,-2816,-168,15980,-109,71,-68
583794416,-2860,-120,15996,-67,52,-66
583797799,-2808,-228,15992,-116,163,-78
583801356,-2788,-300,16024,-91,45,-67
583804763,-2872,-208,15992,-80,168,-48
583808209,-2880,-192,15988,-105,101,-64
583811766,-2892,-196,15900,-74,109,-57
583815235,-2784,-184,15956,-96,150,-61
583818706,-2788,-112,16012,-71,87,-87
583822089,-2748,-260,15980,-99,154,-52
583825559,-2780,-216,15772,-86,39,-70
583828965,-2812,-188,16004,-84,180,-51
583832412,-2888,-156,15940,-100,72,-78
583835917,-2724,-216,16100,-80,175,-52
583839352,-2852,-104,16056,-110,121,-55
583842909,-2748,-216,15924,-80,88,-60
583846292,-2872,-212,15992,-84,177,-51
583849762,-2768,-208,16000,-95,55,-70
583853145,-2844,-96,16060,-64,158,-41
583856577,-2804,-268,15928,-89,60,-70
583859912,-2808,-216,15884,-74,191,-49
583863382,-2724,-220,15944,-139,88,-86
583866852,-2796,-244,16012,-51,100,-40
583870322,-2720,-240,16040,-136,163,-75
583873879,-2796,-180,16024,-83,65,-58
583877262,-2944,-352,15868,-73,165,-48
583880756,-2780,-232,16076,-120,44,-54
583884202,-2748,-172,16000,-64,105,-45
583887672,-2776,-240,16076,-116,82,-69
583891142,-2760,-144,16020,-69,57,-53
583894525,-2764,-360,16052,-118,178,-74
583898082,-2800,-248,15920,-88,35,-64
583901465,-2748,-212,15912,-83,171,-80
583904960,-2840,-276,16024,-108,76,-43
583908405,-2868,-228,15992,-74,140,-73
583911875,-2788,-244,16012,-109,145,-62
583915432,-2820,-244,16012,-41,102,-47
583918902,-2792,-272,16020,-108,168,-59
583922459,-2812,-124,15952,-83,34,-84
583925842,-2772,-192,15876,-78,169,-50
583929335,-2788,-236,15936,-91,62,-76
583932695,-2896,-268,15924,-67,122,-71
583936200,-2796,-212,15980,-121,68,-37
583939635,-2720,-232,15896,-50,133,-54
583943105,-2700,-264,15944,-107,148,-71
583946662,-2784,-156,16040,-89,25,-41
583950045,-2884,-224,16000,-72,189,-81
583953518,-2816,-252,15900,-109,51,-53
583957034,-2708,-80,15800,-49,162,-66
583960368,-2796,-172,16020,-107,59,-77
583963838,-2776,-212,16036,-59,87,-39
583967221,-2748,-324,15948,-144,121,-70
583970778,-2808,-164,16072,-89,27,-65
583974161,-2776,-188,15976,-96,176,-73
583977632,-2812,-144,16048,-88,47,-71
583981039,-2808,-128,15936,-70,183,-41
583984485,-2784,-228,15792,-106,129,-61
583988041,-2800,-224,16000,-55,96,-41
583991425,-2776,-228,16068,-108,92,-63
583994895,-2744,-272,16032,-71,69,-53
583998278,-2856,-208,15944,-99,143,-89
584001748,-2844,-324,15880,-76,60,-60
584005156,-2840,-108,15880,-88,160,-51
584008601,-2844,-212,15872,-109,76,-84
584012071,-2780,-260,16016,-50,146,-62
584015541,-2932,-232,16000,-121,138,-68
584019098,-2772,-180,16028,-46,103,-49
584022568,-2792,-188,16028,-91,157,-63
584026038,-2860,-184,15952,-82,72,-77
584029444,-2752,-232,15956,-54,159,-37
584032891,-2904,-296,15892,-95,77,-60
584036309,-2840,-264,15960,-81,96,-56
584039658,-2884,-248,15944,-103,97,-59
584043128,-2804,-288,16056,-83,91,-53
584046511,-2860,-200,16072,-99,154,-61
584049981,-2740,-204,16056,-56,39,-71
584053368,-2916,-268,16056,-58,165,-50
584056937,-2892,-208,16088,-99,52,-70
584060217,-2848,-112,15844,-71,105,-68
584063687,-2792,-196,16016,-127,86,-48
584067157,-2740,-176,16044,-73,53,-84
584070541,-2832,-228,15940,-113,162,-49
584074097,-2836,-168,15928,-79,83,-67
584077481,-2740,-200,15868,-63,137,-59
584080975,-2760,-292,16016,-91,68,-68
584084334,-2832,-172,15916,-58,156,-62
584087804,-2804,-128,15856,-106,47,-50
584091274,-2900,-244,15928,-76,90,-31
584094662,-2772,-212,15948,-117,133,-74
584098214,-2808,-328,15960,-53,43,-45
584101597,-2844,-204,16012,-125,163,-81
584105179,-2852,-236,15936,-106,52,-58
584108624,-2772,-368,16076,-56,171,-54
584112094,-2792,-204,16032,-129,102,-56
584115651,-2812,-220,16140,-55,105,-61
584119121,-2808,-228,15992,-107,182,-43
584122678,-2848,-120,15924,-87,50,-91
584126061,-2788,-220,15932,-73,156,-46
584129554,-2812,-276,16020,-84,36,-47
584132914,-2828,-272,15992,-78,93,-46
584136340,-2824,-172,16024,-125,88,-107
584139854,-2760,-288,16112,-79,95,-44
584143237,-2816,-180,15844,-86,195,-50
584146707,-2828,-164,15980,-99,54,-57
584150090,-2812,-216,16024,-68,144,-27
584153564,-2780,-224,15932,-105,72,-42
584157079,-2748,-176,15980,-82,72,-82
584160414,-2768,-196,15920,-125,130,-82
584163971,-2792,-312,16004,-108,41,-67
584167440,-2796,-132,15980,-87,164,-45
584170911,-2740,-196,16036,-103,71,-57
584174381,-2864,-188,16016,-47,147,-59
584177851,-2812,-244,16068,-120,122,-56
584181432,-2784,-200,15908,-69,79,-65
584184791,-2896,-272,15984,-102,165,-52
584188347,-2800,-180,15892,-84,67,-41
584191730,-2776,-244,15952,-65,151,-57
584195201,-2772,-108,15720,-101,67,-73
584198671,-2728,-148,16024,-65,93,-20
584202054,-2776,-260,15856,-111,88,-78
584205548,-2816,-116,15964,-62,108,-34
584208994,-2816,-216,16040,-132,157,-68
584212551,-2880,-288,15856,-57,52,-96
584215934,-2732,-228,16036,-55,179,-47
584219404,-2852,-296,16104,-89,39,-52
584222787,-2880,-240,15940,-62,136,-51
584226257,-2888,-184,15988,-122,64,-70
584229750,-2848,-184,16036,-87,71,-54
584233110,-2772,-208,15988,-141,119,-79
584236702,-2848,-244,15972,-96,57,-55
584240050,-2800,-256,15972,-110,186,-41
584243607,-2844,-160,15980,-110,66,-70
584247077,-2812,-260,15988,-54,170,-48
584250547,-2768,-208,16040,-103,116,-79
584254152,-2812,-196,16008,-49,94,-71
584257487,-2816,-248,15896,-95,187,-54
584260957,-2772,-228,15992,-84,65,-80
584264340,-2828,-132,15880,-103,182,-47
584267897,-2720,-296,16028,-95,62,-61
584271280,-2820,-240,15916,-73,148,-36
584274750,-2752,-224,16000,-112,125,-68
584278311,-2688,-112,15860,-59,123,-36
584281802,-2788,-116,15960,-110,153,-66
584285334,-2804,-228,15972,-109,51,-79
584288804,-2864,-212,16048,-78,183,-44
584292274,-2792,-168,15944,-91,50,-50
584295657,-2840,-160,16012,-74,123,-74
584299127,-2904,-216,16044,-111,89,-72
584302597,-2748,-204,15936,-106,65,-82
584306092,-2872,-240,16068,-97,160,-58
584309537,-2848,-340,15952,-117,46,-63
584313007,-2812,-260,16004,-64,160,-72
584316477,-2756,-244,16056,-132,123,-52
584320034,-2764,-228,16004,-63,93,-66
584323417,-2820,-176,15900,-115,196,-80
584326974,-2788,-148,16028,-95,63,-40
584330380,-2844,-228,16012,-68,170,-46
584333827,-2884,-220,16168,-75,56,-77
584337245,-2668,-176,16020,-51,107,-34
584340680,-2792,-228,15888,-90,72,-63
584344064,-2900,-296,16060,-80,148,-41
584347534,-2772,-268,16032,-112,138,-81
584351090,-2924,-180,15980,-78,65,-57
584354522,-2796,-296,15844,-99,175,-70
584357944,-2872,-184,15996,-93,49,-36
584361327,-2860,-60,16004,-71,159,-61
584364710,-2808,-356,15928,-92,40,-84
584368093,-2724,-180,15828,-67,123,-63
584371563,-2760,-236,16024,-110,60,-63
584375033,-2780,-248,16072,-79,119,-74
584378507,-2748,-244,15988,-135,143,-63
584382085,-2756,-228,16036,-96,48,-71
584385443,-2780,-336,15932,-61,202,-47
584388913,-2776,-176,15812,-93,41,-61
584392297,-2880,-172,16084,-63,149,-38
584395767,-2824,-240,15892,-102,69,-81
584399237,-2888,-252,16008,-74,92,-35
584402620,-2856,-240,15924,-121,124,-72
584406201,-2828,-308,16032,-88,82,-37
584409560,-2888,-224,16060,-103,147,-41
584413116,-2816,-188,15996,-110,41,-73
584416586,-2760,-356,15920,-74,191,-80
584420056,-2792,-212,15756,-120,81,-68
584423526,-2676,-132,16064,-66,118,-53
584426996,-2744,-312,15992,-133,140,-71
584430576,-2792,-228,15956,-71,76,-42
584433937,-2776,-192,16012,-60,181,-50
584437441,-2772,-284,16048,-101,60,-61
584440877,-2776,-172,15992,-73,130,-49
584444346,-2760,-220,16044,-85,97,-72
584447730,-2872,-224,16132,-64,82,-65
584451113,-2772,-176,16048,-117,169,-57
584454718,-2808,-220,15960,-67,55,-29
584458053,-2772,-224,15864,-52,153,-74
584461523,-2652,-264,15992,-117,56,-81
584464993,-2812,-244,15880,-62,93,-48
584468376,-2804,-144,15976,-130,129,-84
584471933,-2940,-176,15932,-86,57,-72
584475316,-2812,-244,15944,-103,155,-81
584478898,-2880,-264,16136,-109,49,-79
584482343,-2768,-212,15828,-69,153,-32
584485813,-2800,-252,15892,-121,84,-68
584489283,-2684,-216,15968,-67,108,-44
584492753,-2820,-180,16080,-96,155,-63
584496223,-2788,-196,16080,-85,94,-55
584499606,-2876,-136,15884,-88,174,-69
584503076,-2864,-172,16044,-84,45,-63
584506484,-2900,-84,16168,-78,126,-43
584509843,-2776,-196,16020,-108,80,-64
584513313,-2760,-124,15980,-61,144,-42
584516783,-2684,-168,15908,-116,152,-42
584520340,-2720,-188,15904,-68,63,-70
584523723,-2888,-184,16064,-68,203,-54
584527193,-2800,-284,15888,-112,42,-67
584530686,-2836,-244,16004,-61,172,-31
584534133,-2688,-236,15968,-108,51,-73
584537638,-2836,-112,15952,-84,74,-86
584540986,-2832,-300,15992,-94,133,-86
584544456,-2856,-156,16028,-87,50,-74
584547839,-2812,-236,15956,-96,167,-62
584551309,-2808,-300,15908,-107,75,-65
584554840,-2836,-228,15968,-75,178,-71
584558249,-2812,-272,15948,-98,76,-80
584561632,-2840,-264,15804,-71,95,-70
584565016,-2856,-192,15948,-105,96,-55
584568486,-2832,-156,15956,-87,61,-41
584571869,-2752,-160,16028,-124,162,-56
584575426,-2728,-160,16052,-95,55,-92
584578834,-2788,-308,15972,-62,169,-68
584582279,-2824,-284,15988,-105,77,-52
584585749,-2776,-212,15916,-60,105,-65
584589219,-2844,-208,16020,-114,145,-50
584592776,-2772,-204,15904,-73,74,-72
584596159,-2820,-200,16100,-85,173,-75
584599629,-2736,-108,15908,-109,66,-35
584603099,-2892,-212,15984,-61,178,-51
584606594,-2824,-188,16000,-124,85,-58
584610039,-2844,-212,15916,-60,122,-67
584613509,-2836,-188,15816,-105,176,-60
584617066,-2756,-200,15956,-75,82,-64
584620449,-2808,-360,16052,-64,134,-63
584623919,-2844,-112,16016,-103,61,-67
584627389,-2824,-260,15988,-58,99,-60
584630795,-2800,-224,16004,-134,116,-90
584634329,-2728,-156,15892,-96,69,-71
584637747,-2760,-240,15892,-87,183,-73
584641182,-2808,-196,15864,-84,58,-62
584644566,-2824,-252,16108,-80,149,-56
584648035,-2728,-232,15976,-127,103,-80
584651592,-2804,-284,16008,-68,89,-61
584655024,-2816,-256,15896,-130,188,-62
584658532,-2744,-168,15928,-85,42,-62
584661916,-2828,-228,15872,-69,178,-76
584665385,-2828,-244,15928,-99,62,-77
584668769,-2864,-204,15960,-54,157,-63
584672239,-2816,-292,15912,-106,88,-52
584675709,-2924,-156,15988,-69,129,-45
584679203,-2744,-268,15948,-118,176,-88
584682735,-2876,-308,16052,-95,71,-47
584686119,-2776,-88,15908,-75,162,-60
584689502,-2824,-240,15892,-94,44,-83
584692885,-2820,-120,15884,-72,128,-35
584696355,-2776,-192,16008,-114,96,-66
584699825,-2840,-192,16036,-52,63,-25
584703212,-2708,-172,16160,-113,142,-69
584706790,-2820,-264,16064,-74,65,-58
584710149,-2776,-284,16024,-96,183,-55
584713619,-2888,-212,15932,-86,54,-43
584717002,-2956,-320,15968,-78,165,-49
584720472,-2780,-232,15960,-103,39,-101
584724028,-2780,-160,15944,-57,112,-35
584727498,-2852,-212,16068,-140,107,-70
584731079,-2780,-244,16012,-65,75,-55
584734439,-2844,-232,15976,-114,160,-82
584738030,-2804,-252,16056,-68,54,-88
584741378,-2888,-260,15992,-77,173,-71
584744848,-2716,-140,16112,-115,89,-81
584748318,-2744,-204,16052,-70,108,-64
584751789,-2828,-156,15900,-105,154,-72
584755394,-2828,-220,16116,-74,71,-48
584758729,-2816,-104,15960,-98,183,-60
584762199,-2800,-232,15932,-70,55,-61
584765582,-2852,-208,15916,-44,148,-37
584769052,-2852,-164,16020,-114,67,-77
584772522,-2800,-148,15904,-81,62,-65
584775905,-2816,-240,15924,-126,170,-42
584779486,-2816,-176,15936,-85,36,-60
584782845,-2804,-300,15872,-57,173,-48
584786315,-2728,-152,16064,-98,71,-47
584789698,-2828,-204,15940,-65,143,-43
584793168,-2716,-172,15904,-104,72,-70
584796638,-2812,-184,15904,-76,73,-69
584800022,-2700,-168,15868,-107,147,-62
584803582,-2884,-168,15828,-85,31,-55
584806986,-2760,-188,15916,-75,167,-40
584810432,-2820,-140,15960,-121,100,-83
584813988,-2780,-164,15976,-56,143,-56
584817458,-2756,-264,15844,-119,143,-76
584821015,-2868,-172,15924,-75,68,-53
584824398,-2856,-252,15972,-59,215,-73
584827868,-2788,-256,15960,-90,33,-66
584831275,-2736,-268,15984,-40,152,-43
584834721,-2884,-196,15920,-114,76,-80
584838226,-2764,-252,15996,-64,77,-57
584841575,-2880,-148,16044,-114,135,-63
584845131,-2792,-256,16008,-79,92,-73
584848515,-2736,-144,16012,-105,170,-59
584852071,-2844,-244,15896,-75,48,-81
584855503,-2840,-180,15928,-61,177,-58
584858925,-2788,-244,16040,-89,71,-60
584862308,-2816,-284,15984,-66,108,-62
584865778,-2760,-156,16068,-110,107,-82
584869335,-2804,-172,15884,-85,67,-67
584872718,-2840,-292,16004,-100,158,-59
584876275,-2736,-260,16000,-103,55,-54
584879769,-2864,-268,15992,-86,206,-62
584883215,-2832,-268,16064,-93,65,-81
584886598,-2796,-196,15856,-71,155,-68
584890068,-2864,-192,16024,-112,94,-54
584893538,-2832,-160,15860,-73,122,-70
584897008,-2804,-236,16020,-111,158,-52
584900565,-2812,-236,15964,-75,55,-93
584903972,-2904,-108,16056,-70,164,-71
584907418,-2848,-220,16008,-106,65,-99
584910888,-2880,-216,16036,-68,161,-56
584914358,-2868,-180,15960,-100,98,-64
584917828,-2856,-244,15924,-70,113,-61
584921298,-2772,-220,16016,-106,169,-68
584924855,-2816,-192,16060,-91,58,-64
584928241,-2848,-212,15940,-72,140,-30
584931731,-2712,-268,15896,-90,36,-45
584935091,-2852,-284,15992,-66,130,-48
584938596,-2784,-220,16076,-126,90,-71
584942031,-2852,-188,16060,-78,78,-60
584945414,-2824,-160,16144,-116,161,-41
584948971,-2836,-136,16020,-97,53,-86
584952354,-2788,-236,16004,-84,173,-61
584955874,-2888,-160,15936,-93,45,-59
584959208,-2756,-320,15940,-70,172,-42
584962678,-2796,-284,15940,-106,73,-53
584966148,-2840,-268,15716,-92,74,-72
584969531,-2732,-228,15960,-103,138,-77
584973088,-2876,-244,15944,-88,51,-60
584976471,-2768,-164,15836,-105,148,-63
584980052,-2908,-284,16080,-88,42,-69
584983411,-2756,-172,16080,-81,152,-40
584986881,-2864,-264,15836,-115,101,-72
584990438,-2856,-216,16012,-55,115,-50
584993908,-2744,-264,15972,-106,148,-63
584997464,-2808,-296,15980,-95,84,-70
585000848,-2660,-236,15988,-70,176,-52
585004342,-2828,-168,15980,-104,52,-55
585007788,-2872,-256,16048,-62,131,-51
585011258,-2780,-256,15916,-112,51,-102
585014814,-2796,-144,15844,-81,112,-63
585018284,-2816,-136,15980,-106,100,-74
585021841,-2796,-236,15940,-74,57,-75
585025225,-2764,-200,16000,-104,164,-51
585028804,-2836,-256,16124,-97,40,-64
585032165,-2884,-204,15968,-85,163,-104
585035721,-2836,-228,16028,-101,61,-91
585039226,-2892,-256,15924,-71,117,-54
585042661,-2856,-288,16024,-112,133,-58
585046218,-2740,-172,15808,-82,105,-71
585049688,-2868,-288,15996,-98,170,-59
585053161,-2780,-300,15836,-93,57,-57
585056643,-2812,-156,15992,-39,164,-62
585060011,-2760,-144,15880,-103,51,-46
585063481,-2856,-244,15788,-53,133,-61
585066951,-2740,-336,15848,-110,87,-74
585070421,-2820,-324,15924,-110,64,-99
585073891,-2780,-252,15976,-85,185,-57
585077361,-2760,-184,15900,-110,61,-67
585080856,-2812,-204,16016,-60,167,-40
585084301,-2632,-172,15972,-135,119,-37
585087858,-2744,-248,16024,-56,107,-72
585091328,-2956,-232,15956,-88,169,-40
585094798,-2736,-268,15852,-82,53,-76
585098181,-2804,-192,16016,-106,193,-72
585101738,-2692,-284,15900,-93,37,-100
585105233,-2780,-200,15992,-78,110,-32
585108678,-2764,-220,16028,-138,108,-65
585112235,-2796,-196,16108,-76,40,-74
585115618,-2844,-192,15840,-100,178,-76
585119175,-2772,-240,16024,-91,57,-77
585122558,-2736,-252,15948,-71,176,-48
585126028,-2832,-204,15764,-96,62,-42
585129435,-2820,-244,15968,-65,100,-64
585132881,-2744,-184,15996,-113,115,-56
585136438,-2812,-164,15808,-85,72,-78
585139860,-2792,-164,16000,-114,173,-54
585143378,-2712,-100,16068,-97,31,-82
585146761,-2792,-148,16032,-99,189,-40
585150231,-2880,-220,15972,-86,70,-95
585153618,-2836,-176,15980,-77,119,-42
585157133,-2684,-204,16172,-128,93,-53
585160554,-2848,-172,15956,-77,78,-48
585163938,-2840,-188,16076,-98,127,-49
585167408,-2900,-240,16012,-78,63,-52
585170791,-2804,-240,16020,-93,189,-82
585174261,-2748,-212,15880,-130,80,-73
585177731,-2884,-140,16044,-71,149,-31
585181226,-2788,-144,15872,-125,140,-49
585184758,-2820,-192,15912,-76,65,-53
585188141,-2848,-164,15960,-76,193,-68
585191611,-2840,-184,15908,-95,30,-72
585194994,-2848,-212,15868,-59,190,-48
585198464,-2760,-228,16056,-87,42,-85
585201848,-2740,-204,16068,-59,99,-86
585205255,-2860,-204,15948,-116,103,-79
585208788,-2796,-208,16040,-75,85,-77
585212171,-2860,-240,16008,-119,139,-50
585215728,-2800,-176,16008,-74,81,-64
585219111,-2848,-248,16072,-67,169,-42
585222581,-2784,-164,15928,-104,37,-67
585226051,-2704,-240,15976,-41,125,-74
585229544,-2844,-204,16024,-111,80,-61
585232991,-2884,-300,15972,-68,71,-60
585236374,-2804,-180,15844,-118,150,-60
585239966,-2796,-160,16048,-90,56,-85
585243314,-2836,-300,15984,-79,182,-39
585246784,-2744,-272,16124,-100,73,-61
585250254,-2760,-88,15908,-79,150,-28
585253686,-2848,-224,15992,-128,124,-51
585257194,-2832,-212,15884,-68,80,-69
585260577,-2880,-172,15968,-86,168,-70
585264047,-2804,-280,16008,-90,57,-68
585267431,-2784,-264,16024,-119,198,-79
585270987,-2800,-172,15988,-93,52,-67
585274370,-2760,-232,15896,-78,182,-74
585277841,-2780,-280,16120,-115,109,-64
585281422,-2904,-216,15968,-66,110,-57
585284867,-2848,-180,15928,-104,164,-62
585288424,-2848,-208,16080,-97,64,-71
585291807,-2748,-180,15976,-70,161,-34
585295277,-2792,-340,15952,-94,65,-76
585298661,-2868,-136,15972,-54,119,-52
585302131,-2808,-280,15984,-120,88,-91
585305625,-2728,-304,16108,-80,70,-53
585308984,-2780,-244,15964,-120,140,-75
585312540,-2756,-208,16128,-80,46,-53
585315924,-2836,-232,16040,-87,200,-31
585319394,-2880,-232,15956,-108,70,-67
585322864,-2908,-196,15908,-57,135,-40
585326334,-2832,-224,16000,-124,167,-70
585329914,-2808,-176,16044,-73,92,-87
585333274,-2824,-248,15972,-106,141,-44
585336830,-2748,-228,15980,-95,61,-41
585340249,-2852,-220,15988,-61,150,-71
585343684,-2804,-232,15828,-100,56,-69
585347154,-2796,-196,15900,-58,121,-37
585350624,-2892,-292,16004,-132,144,-46
585354229,-2836,-204,15868,-80,73,-92
