Time,Accel_X,Accel_Y,Accel_Z,Gyro_X,Gyro_Y,Gyro_Z
257514985,-2560,-452,14736,-94,261,178
257518455,-2828,-428,15112,-147,236,103
257522035,-2652,-380,14840,-28,254,226
257525520,-2824,-476,15104,5,184,151
257528779,-2596,-572,14932,45,304,151
257532162,-2628,-544,14984,18,142,296
257535545,-2524,-572,14688,-72,303,31
257538928,-3000,-492,15120,-4,274,245
257542312,-2596,-384,14764,-98,163,191
257545782,-2632,-360,14976,-90,283,131
257549312,-2824,-332,14808,-8,120,260
257552635,-2460,-496,14764,-62,325,76
257556018,-2896,-440,15244,-66,185,243
257559488,-2524,-604,14936,22,195,233
257562871,-2736,-392,14900,-64,336,165
257566341,-2788,-328,14952,89,106,279
257569725,-2444,-488,14608,-67,335,68
257573132,-2920,-280,15004,-91,231,146
257576578,-2596,-456,14712,-25,230,181
257580048,-2868,-504,15260,36,199,291
257583431,-2560,-420,14572,-97,190,182
257586901,-2916,-424,15208,-5,279,189
257590284,-2392,-532,14764,-115,203,152
257593841,-2948,-224,15132,42,191,285
257597249,-2512,-480,14944,-19,279,115
257600694,-2956,-360,15044,90,99,324
257603991,-2352,-464,14692,-105,340,127
257607548,-2852,-312,15152,-15,207,152
257611018,-2492,-456,14780,-65,279,185
257614488,-2936,-520,15104,-88,218,157
257617958,-2384,-544,14756,-56,196,212
257621431,-2920,-472,15112,-151,280,106
257625011,-2468,-412,14700,20,179,252
257628403,-2628,-428,15012,-101,389,67
257631838,-2844,-384,15048,87,87,319
257635134,-2324,-592,14680,-9,309,147
257638517,-2856,-352,15096,-107,213,106
257642074,-2372,-412,14664,-59,295,133
257645544,-2964,-404,15044,-21,211,292
257649062,-2460,-456,14740,-39,133,222
257652484,-2816,-492,15096,-159,380,50
257655954,-2452,-516,14812,-22,131,235
257659424,-2856,-372,15016,-33,267,143
257662894,-2592,-352,14736,-21,272,210
257666364,-2684,-492,15208,26,205,154
257669747,-2604,-464,14728,-3,308,179
257673155,-2744,-440,15044,-29,222,128
257676601,-2768,-376,14876,-2,219,228
257679984,-2804,-420,15128,-84,228,187
257683454,-2676,-460,14940,-50,205,145
257686924,-2824,-416,15132,-118,273,164
257690485,-2644,-476,14992,-8,130,215
257693864,-2744,-568,15096,-47,345,157
257697358,-2696,-468,15156,79,95,275
257700630,-2728,-496,14944,-11,268,131
257704100,-2632,-524,14968,-31,223,166
257707570,-2696,-400,14940,-93,192,144
257711040,-2800,-420,14992,-32,235,246
257714510,-2472,-444,15012,-111,236,119
257718067,-2764,-400,15004,-9,247,234
257721454,-2680,-440,14980,-87,214,200
257724944,-2604,-584,14840,17,185,214
257728307,-2844,-440,15180,-51,291,104
257731809,-2660,-496,14880,53,160,229
257735157,-2644,-340,14772,-63,340,140
257738627,-2704,-516,15016,36,113,239
257742010,-2428,-448,14760,-97,362,65
257745393,-3184,-320,15200,-30,141,309
257748912,-2484,-512,14900,-92,301,25
257752247,-2976,-344,14944,-107,191,276
257755803,-2600,-444,14764,-65,203,127
257759273,-2744,-480,15064,-5,269,208
257762657,-2676,-552,14780,58,155,257
257766040,-2692,-380,14996,-23,340,124
257769510,-2724,-480,14972,35,207,232
257772918,-2552,-360,14604,-96,229,156
257776363,-2768,-528,15168,36,270,204
257779746,-2148,-648,14760,-95,161,211
257783216,-3112,-416,15288,27,158,284
257786600,-2272,-500,14732,-71,196,170
257790070,-2892,-400,15220,-95,272,138
257793540,-2492,-588,14840,2,189,301
257796839,-2624,-416,14848,-110,289,69
257800331,-2820,-392,15180,59,276,240
257803689,-2448,-404,14600,48,160,257
257807073,-2892,-560,15292,-109,387,25
257810543,-2440,-488,14656,28,154,323
257813926,-2740,-340,14888,-202,361,12
257817396,-2860,-372,14916,24,167,304
257820779,-2332,-508,14812,-139,234,103
257824359,-3048,-280,15044,0,196,267
257827632,-2500,-548,14908,-7,147,240
257831016,-2828,-376,15076,31,252,205
257834434,-2444,-548,14744,-32,340,102
257837869,-2916,-444,15136,17,214,194
257841252,-2548,-400,14752,-47,296,132
257844722,-2716,-416,15132,-54,185,194
257848240,-2640,-492,14956,-27,192,228
257851662,-2704,-424,15028,-131,229,99
257855132,-2652,-408,15048,-37,149,258
257858602,-2628,-584,14704,-109,374,105
257862159,-3048,-404,15324,12,97,297
257865455,-2496,-384,14600,7,296,171
257868752,-2896,-364,15144,-19,226,153
257872246,-2348,-380,14624,-75,315,44
257875605,-3132,-244,15280,-33,219,209
257879075,-2360,-448,14756,-83,239,149
257882545,-2964,-532,15276,-137,348,105
257886102,-2564,-440,14828,-38,164,180
257889572,-2860,-368,15196,-103,276,150
257893129,-2660,-476,14932,-21,235,226
257896602,-2728,-420,15124,-47,232,97
257900006,-2720,-404,14888,61,252,247
257903365,-2644,-580,14956,-79,258,91
257906748,-2640,-460,14924,11,291,183
257910132,-2608,-552,14816,-121,261,119
257913688,-3108,-368,15176,9,146,294
257916985,-2224,-564,14764,-58,383,85
257920368,-2824,-320,14892,-118,202,160
257923948,-2776,-464,15064,-5,247,230
257927308,-2636,-500,15028,-54,153,200
257930778,-2764,-560,15108,-28,274,168
257934252,-2596,-476,14920,-37,230,159
257937753,-2704,-568,14944,55,151,260
257941101,-2616,-320,15024,-37,338,169
257944571,-2696,-304,14828,-130,283,55
257948091,-2828,-300,15048,-6,177,282
257951425,-2520,-440,14852,-42,235,147
257954895,-2832,-508,15056,-50,164,228
257958365,-2528,-540,14736,-30,247,205
257961835,-2736,-364,14804,-160,161,184
257965391,-2780,-456,14936,64,266,214
257968775,-2584,-420,14832,-102,250,115
257972356,-3088,-300,15116,62,189,280
257975715,-2288,-544,14648,-16,260,194
257979185,-3028,-392,15224,-46,144,200
257982655,-2424,-360,14668,-38,245,243
257986125,-3124,-400,15144,-83,164,180
257989595,-2428,-544,14664,28,194,261
257992978,-2900,-404,15040,-109,262,158
257996538,-2688,-476,14908,-17,210,169
258000029,-2564,-360,14868,48,286,196
258003388,-2888,-464,15208,-27,204,191
258006858,-2524,-532,15020,27,214,186
258010241,-2836,-444,14892,-143,316,103
258013798,-2928,-248,14852,-70,119,248
258017268,-2640,-448,14936,-126,354,61
258020738,-3028,-340,15212,27,71,394
258024058,-2436,-360,14672,-142,347,-2
258027504,-3300,-492,15568,-44,156,264
258030974,-2148,-576,14516,-70,252,112
258034444,-3084,-320,15128,-88,364,96
258037863,-2596,-512,14872,16,182,209
258041211,-2716,-320,14924,-49,274,183
258044681,-2756,-568,15004,-36,299,178
258048253,-2836,-412,14952,-97,227,94
258051534,-2700,-436,15156,-62,223,256
258055004,-2764,-468,14820,-133,190,147
258058561,-2728,-484,15020,7,179,215
258061857,-2668,-436,15020,-77,242,173
258065327,-2740,-496,15048,39,197,237
258068711,-2572,-524,14876,-23,349,122
258072205,-2888,-452,15056,83,93,299
258075477,-2452,-484,14784,-73,414,30
258078860,-2744,-404,15056,-12,108,293
258082330,-2604,-264,14764,-105,288,109
258085887,-2864,-424,15084,-2,200,262
258089270,-2480,-348,14644,-90,186,176
258092740,-2976,-348,15060,22,273,196
258096124,-2568,-464,14796,-27,130,263
258099618,-2704,-488,15056,33,233,142
258102977,-2452,-576,14892,45,166,270
258106360,-2556,-504,15084,-3,281,146
258109743,-2568,-416,14732,-109,288,187
258113300,-2740,-388,14992,-47,198,145
258116770,-2772,-432,15036,-13,241,226
258120240,-2748,-480,14932,-72,178,165
258123733,-2684,-572,15052,-85,248,117
258127180,-2824,-376,15108,-63,225,265
258130650,-2624,-336,14904,-112,183,119
258134207,-2952,-500,15172,-8,305,169
258137594,-2644,-568,14836,-27,182,207
258141099,-2716,-512,14944,59,257,219
258144443,-2656,-420,14624,-128,310,127
258148049,-2804,-364,15036,-23,182,174
258151470,-2648,-344,14840,-76,283,221
258154940,-2948,-380,15208,-98,194,115
258158410,-2376,-624,14980,-18,228,159
258161880,-2988,-420,15252,-147,284,72
258165350,-2568,-592,15116,134,138,208
258168820,-2592,-408,14852,-124,333,156
258172401,-2848,-468,15108,15,166,221
258175760,-2708,-496,14872,5,296,153
258179057,-2576,-468,14912,-98,189,157
258182527,-2820,-440,14832,-30,173,198
258185997,-2660,-456,14924,-144,340,106
258189553,-2756,-400,15120,3,99,276
258192763,-2652,-444,14868,-28,289,191
258196233,-2684,-452,14728,-90,168,176
258199728,-2944,-432,15224,59,157,246
258203086,-2408,-420,14628,-40,249,164
258206556,-2832,-296,15112,72,184,208
258209940,-2476,-472,14696,44,314,198
258213323,-2832,-416,15032,-39,198,200
258216793,-2484,-516,14980,-48,287,156
258220263,-2856,-404,14952,-142,227,211
258223843,-2676,-540,14908,-55,164,215
258227290,-2688,-352,14888,-30,280,200
258230760,-2504,-488,14988,-17,184,170
258234230,-2932,-492,14980,95,208,243
258237613,-2572,-548,14884,-82,233,158
258241086,-2880,-440,15060,-2,231,191
258244501,-2720,-408,15008,-129,340,128
258248071,-2932,-356,15056,-21,209,150
258251493,-2744,-456,14992,26,238,262
258254876,-2596,-476,14944,-55,156,192
258258346,-2664,-440,14972,0,218,221
258261643,-2708,-372,14996,-73,205,166
258265113,-2584,-548,14960,-64,192,113
258268583,-2784,-448,14992,-76,308,160
258272077,-2576,-536,14968,13,160,214
258275436,-2728,-548,15052,44,275,194
258278819,-2640,-480,14900,3,171,206
258282116,-2624,-472,14860,-35,237,139
258285586,-2608,-460,14960,-60,192,294
258289056,-2636,-392,14892,-164,236,91
258292526,-2636,-404,15008,-38,236,270
258295996,-2668,-528,14892,-70,237,81
258299403,-2752,-560,15100,6,169,230
258302675,-2652,-540,14872,-54,241,175
258306145,-2916,-464,15088,43,118,233
258309529,-2560,-432,14752,46,302,232
258312912,-2592,-568,14768,-73,189,162
258316382,-2984,-376,15156,-22,238,188
258319852,-2536,-528,14804,-76,163,221
258323345,-2908,-460,15176,-34,198,189
258326792,-2476,-512,14812,-23,241,206
258330262,-2944,-380,15196,-92,220,128
258333732,-2552,-460,15028,36,204,292
258337115,-2720,-436,14844,-88,247,154
258340585,-2656,-428,14904,27,185,205
258343968,-2908,-304,15004,-51,315,187
258347505,-2500,-568,14904,127,82,293
258350822,-2620,-464,14752,-227,442,-46
258354378,-2568,-572,14968,104,33,398
258357762,-2540,-384,14488,-195,378,-30
258361318,-2860,-560,15152,55,154,335
258364702,-2380,-424,14680,-119,219,149
258368258,-2992,-408,15008,62,207,296
258371645,-2292,-460,14908,-28,204,180
258375136,-2680,-516,15184,94,119,323
258378495,-2592,-332,14720,-93,330,67
258381878,-2752,-488,15064,13,165,218
258385261,-2812,-304,14720,-66,284,190
258388731,-2464,-572,15072,-129,214,108
258392288,-2880,-348,14920,-1,136,354
258395671,-2380,-488,14808,-107,257,79
258399166,-2788,-520,15088,57,154,263
258402525,-2412,-472,14600,-87,299,127
258405995,-2964,-472,15216,76,117,254
258409378,-2520,-496,14708,18,288,220
258412761,-2660,-512,14996,-65,262,58
258416144,-2508,-564,14892,-6,203,260
258419528,-2612,-392,14900,-123,229,134
258423109,-2616,-452,14800,-63,136,239
258426554,-2716,-416,14976,-149,317,141
258430111,-2764,-368,14884,-44,152,216
258433581,-2564,-416,14904,-36,288,154
258437051,-2628,-620,15092,23,218,242
258440434,-2640,-420,14928,-25,220,131
258443904,-2800,-416,14984,3,277,212
258447248,-2644,-436,14832,-84,257,113
258450706,-2776,-404,14944,-10,230,201
258454141,-2816,-492,15160,-57,237,194
258457611,-2632,-412,14984,14,191,217
258460994,-2880,-468,15188,-57,235,248
258464464,-2616,-384,14984,-9,117,240
258467847,-2668,-580,15008,8,260,156
258471144,-2348,-384,14620,20,152,265
258474552,-2836,-500,15084,-14,333,60
258477910,-2508,-628,14908,40,247,278
258481294,-2796,-388,15032,-150,306,20
258484764,-2804,-532,14980,36,216,224
258488147,-2592,-500,15060,-79,138,233
258491617,-2580,-352,14836,-96,259,145
258495087,-2724,-564,15068,-117,199,182
258498668,-2696,-412,14896,-79,177,172
258502114,-2972,-512,15268,-12,317,145
258505584,-2404,-464,14756,-36,215,179
258509054,-3176,-264,15268,-21,307,138
258512524,-2256,-480,14720,116,83,338
258515907,-2980,-416,15056,-194,370,-42
258519464,-2828,-412,14888,69,67,443
258522785,-2392,-504,14680,-168,272,22
258526230,-2668,-520,15068,89,128,407
258529613,-2356,-412,14616,-254,337,16
258533083,-2988,-468,14956,20,100,344
258536467,-2316,-572,14784,-103,254,115
258540023,-2832,-608,15176,36,143,229
258543407,-2624,-456,14912,60,220,290
258546793,-2460,-544,14816,-111,344,-47
258550409,-3096,-484,15220,7,176,291
258553678,-2436,-384,14580,-159,337,41
258557113,-2920,-452,15168,65,93,379
258560410,-2344,-440,14732,-138,336,75
258563880,-2920,-412,15164,-9,126,256
258567263,-2472,-400,14732,-72,281,190
258570733,-2912,-388,15064,7,170,204
258574054,-2512,-528,14856,1,293,171
258577326,-2808,-464,15168,-3,195,194
258580709,-2624,-404,14800,-48,214,165
258584179,-2704,-456,15092,-34,266,210
258587649,-2732,-380,15088,-76,134,233
258591119,-2508,-568,14896,-25,285,192
258594589,-2768,-468,14924,-146,209,177
258598170,-2592,-632,15088,8,216,216
258601442,-2864,-408,15104,-74,270,214
258604912,-2464,-448,14816,3,218,154
258608209,-2780,-420,15156,-3,319,186
258611592,-2488,-540,14788,-65,183,186
258615062,-2956,-340,15116,40,275,222
258618445,-2248,-588,14676,-168,269,24
258621940,-2976,-276,14912,3,167,250
258625212,-2404,-632,14912,-100,312,70
258628682,-2804,-488,15124,-37,104,310
258632152,-2520,-480,14676,-39,326,165
258635622,-2852,-500,15044,-79,188,154
258639092,-2776,-568,15036,89,137,351
258642475,-2548,-516,14864,-84,366,72
258645858,-2776,-524,14888,96,108,301
258649289,-2420,-440,14580,-81,442,39
258652625,-2820,-352,14980,7,68,326
258655869,-2492,-436,14844,-80,360,109
258659305,-2800,-424,15184,-84,217,217
258662775,-2680,-432,15008,-33,209,201
258666245,-2608,-508,14900,-81,298,201
258669715,-2776,-500,15148,-17,155,198
258673209,-2396,-416,14804,-31,297,166
258676655,-2968,-332,15100,-121,254,67
258680125,-2584,-420,14820,149,174,359
258683595,-2840,-284,14924,-196,418,-56
258687151,-2680,-408,14964,112,48,409
258690535,-2940,-392,15020,-170,399,60
258694005,-2672,-516,15104,102,32,386
258697412,-2824,-476,15152,-124,361,49
258700858,-2716,-424,15076,64,30,382
258704154,-2260,-448,14692,-128,335,-14
258707711,-2884,-524,15092,134,97,445
258711094,-2364,-612,14836,-43,297,79
258714478,-2952,-440,15148,74,214,300
258717861,-2456,-432,14740,-49,174,140
258721334,-2704,-440,14824,-99,267,147
258724825,-2852,-440,14996,-48,193,246
258728271,-2612,-532,15048,-73,196,174
258731741,-2620,-576,14868,-77,295,157
258735211,-2788,-580,15004,-55,176,193
258738681,-2584,-556,14944,62,191,252
258742064,-2672,-428,14980,-52,316,161
258745534,-2872,-444,15044,109,128,348
258749051,-2232,-492,14632,-183,432,-15
258752561,-3260,-324,15408,15,113,242
258755979,-2296,-428,14648,22,231,326
258759327,-3024,-452,15184,-183,262,90
258762797,-2652,-336,14652,112,72,424
258766181,-2388,-496,14840,-183,453,-39
258769737,-2852,-452,14996,192,-42,480
258773232,-2152,-616,14500,-192,476,-67
258776764,-3180,-480,15308,169,54,418
258780147,-2024,-504,14396,-168,428,-121
258783791,-3516,-376,15448,76,129,358
258787174,-2072,-600,14632,-112,290,28
258790644,-3056,-536,15332,-137,311,164
258794201,-2464,-492,14732,-85,150,197
258797695,-2856,-380,15012,-118,342,131
258801228,-2352,-460,14736,0,147,294
258804524,-2708,-428,14984,-189,388,-1
258807994,-2948,-356,14996,64,199,349
258811377,-2536,-440,14916,-116,313,-31
258814934,-3136,-384,15268,169,119,435
258818404,-2412,-520,14608,-110,298,51
258821899,-2968,-428,15120,15,136,286
258825257,-2632,-484,14780,-203,358,54
258828727,-2976,-452,15156,-20,120,289
258832197,-2424,-524,14768,-21,316,148
258835667,-2736,-316,14928,-71,129,192
258839137,-2644,-512,14884,-59,296,83
258842521,-2840,-504,14988,3,175,302
258845817,-2544,-468,14856,-24,277,132
258849334,-2848,-428,15028,49,275,227
258852670,-2580,-420,14748,-7,158,176
258856088,-2724,-416,14652,-40,306,188
258859524,-2796,-420,15044,-75,146,193
258862994,-2720,-432,14880,-26,201,208
258866464,-2616,-420,15064,-130,246,138
258870020,-2744,-448,15020,8,115,254
258873341,-2628,-400,14992,-52,352,146
258876787,-2720,-356,14752,-33,159,244
258880257,-2520,-552,14908,21,327,156
258883640,-2848,-504,15080,-9,140,247
258887023,-2684,-488,14848,-69,281,56
258890407,-2932,-456,15148,-58,230,245
258893877,-2400,-404,14744,-105,237,133
258897458,-3044,-340,15128,-72,289,180
258900903,-2596,-380,14924,-96,197,198
258904373,-2704,-404,15180,-72,268,142
258907843,-2704,-492,15044,18,243,236
258911227,-2776,-400,15064,-82,290,44
258914610,-2952,-408,15120,156,135,386
258918080,-2516,-516,14848,-133,319,-21
258921640,-2836,-444,15124,-14,257,219
258925131,-2556,-268,14660,-110,207,240
258928663,-2736,-568,15024,-90,246,116
258932133,-2808,-496,15064,-15,189,293
258935603,-2500,-496,14744,-119,235,143
258939160,-2796,-464,15144,72,189,289
258942543,-2580,-536,14720,-62,167,209
258946013,-3036,-420,15248,3,224,124
258949358,-2564,-548,14844,86,159,344
258952693,-2552,-448,14772,-96,280,22
258956115,-2644,-516,14768,-4,234,223
258959460,-2712,-352,14944,-108,199,144
258963016,-2676,-504,14620,-13,178,272
258966486,-2724,-428,14808,-239,332,18
258969956,-2772,-384,15072,13,71,307
258973277,-2428,-460,14720,-92,373,115
258976723,-3028,-444,15304,54,123,227
258980106,-2524,-552,14936,88,289,222
258983489,-2800,-332,14828,15,137,207
258986873,-2636,-464,15112,-117,324,57
258990343,-2816,-392,14976,17,143,318
258993726,-2520,-544,15036,-133,237,79
258997220,-2948,-392,15156,58,244,257
259000579,-2356,-476,14812,-129,264,67
259004049,-2856,-436,14912,49,138,314
259007432,-2368,-584,14908,-117,241,79
259010902,-2680,-564,15060,92,121,327
259014286,-2512,-452,14872,-46,272,154
259017756,-2816,-520,15012,6,212,143
259021052,-2480,-440,14816,-31,284,189
259024547,-2960,-296,15096,-72,131,260
259027992,-2460,-516,14912,-68,271,201
259031462,-3008,-248,15080,-111,209,264
259035019,-2536,-492,15012,10,192,185
259038402,-2688,-404,15012,-141,324,83
259041872,-2620,-380,15004,62,175,218
259045255,-2688,-588,15116,-51,322,171
259048826,-2636,-496,14900,32,161,259
259052109,-2544,-468,14880,32,269,182
259055492,-2792,-384,14784,-43,217,234
259059001,-2372,-424,14640,-131,305,21
259062432,-2944,-376,15160,10,223,263
259065815,-2560,-448,14716,-104,199,124
259069372,-2888,-448,15092,54,183,255
259072780,-2348,-556,14824,-166,296,87
259076225,-3072,-384,15192,36,198,260
259079608,-2264,-524,14588,-91,333,126
259083078,-3024,-436,15284,-9,201,157
259086462,-2304,-456,14584,-16,347,104
259089932,-3040,-424,15248,-53,202,189
259093402,-2536,-404,14816,-81,257,171
259096896,-3164,-408,15344,-95,240,141
259100342,-2360,-580,14672,-135,206,123
259103898,-2968,-484,14972,-51,306,147
259107368,-2608,-608,15056,-37,196,194
259110838,-2776,-504,14928,22,326,122
259114222,-2696,-516,15080,26,152,259
259117605,-2916,-484,15084,-33,166,208
259121075,-2532,-464,14648,-44,321,169
259124569,-2784,-480,14836,-62,209,170
259128015,-2632,-372,15088,1,249,252
259131311,-2756,-356,15020,-75,277,159
259134781,-2716,-444,14992,-51,160,228
259138251,-2488,-460,15080,-29,337,178
259141721,-2644,-420,15060,-92,143,182
259145191,-2756,-448,15020,69,245,243
259148622,-2692,-548,15160,-73,226,130
259152045,-2752,-360,14892,112,227,283
259155515,-2468,-500,14768,-190,405,14
259158988,-3092,-344,15212,-2,107,306
259162403,-2424,-332,14656,-153,332,80
259165838,-2944,-408,15196,-68,157,179
259169308,-2592,-456,14816,-21,249,185
259172802,-2872,-432,15020,-127,299,70
259176248,-2776,-404,15084,99,116,267
259179631,-2396,-476,14900,-73,362,118
259183101,-2860,-452,15020,-20,173,170
259186571,-2440,-336,14708,-16,290,142
259190041,-2892,-420,15032,-59,234,140
259193511,-2356,-456,14692,-74,165,220
259197006,-2860,-340,15108,-77,359,122
259200451,-2448,-504,14700,-51,146,208
259203921,-2884,-472,15004,-81,322,151
259207391,-2500,-584,14860,-51,177,244
259210861,-2884,-408,15124,-20,277,125
259214331,-2468,-500,14828,35,302,197
259217714,-2904,-468,15164,-38,231,99
259221098,-2532,-580,14868,-17,337,118
259224592,-2844,-308,15108,-148,224,135
259228124,-2652,-496,14924,-8,141,274
259231508,-2772,-408,15116,-138,324,70
259234978,-2672,-444,14960,5,123,292
259238274,-2676,-408,14868,-91,315,151
259241744,-2700,-440,14852,-43,145,226
259245214,-2724,-384,14976,-30,267,179
259248731,-2728,-484,14972,0,162,145
259251981,-2752,-472,15116,88,130,257
259255364,-2312,-444,14696,-132,326,115
259258921,-3028,-444,15256,-122,287,102
259262512,-2368,-504,14656,32,223,273
259265861,-2928,-432,15020,-152,268,73
259269331,-2352,-608,14720,22,138,305
259272738,-2828,-284,14932,-195,337,0
259276097,-2772,-440,15080,4,105,285
259279394,-2612,-424,14752,-74,359,108
259282864,-2848,-388,15132,12,181,194
259286247,-2452,-588,14796,72,292,155
259289635,-2740,-432,14880,-49,199,158
259293100,-2504,-504,14720,-66,262,174
259296574,-2908,-476,15104,-171,244,118
259300151,-2560,-632,14916,35,143,234
259303510,-2580,-476,15012,-90,314,174
259306980,-2752,-388,14932,-49,172,220
259310450,-2540,-572,14776,-51,272,132
259313920,-2932,-344,15084,3,165,302
259317217,-2472,-540,14660,-26,309,85
259320600,-2892,-476,15112,-37,264,210
259324094,-2600,-464,14852,-79,209,106
259327540,-2928,-348,14940,-34,274,207
259331010,-2488,-628,14900,-145,271,57
259334480,-3152,-420,15156,16,133,302
259337863,-2272,-556,14760,-124,379,49
259341333,-3208,-452,15400,-85,159,180
259344803,-2512,-548,14864,26,319,181
259348234,-2944,-500,15140,-4,147,194
259351570,-2476,-372,14832,97,228,275
259354953,-2784,-496,14992,-90,311,80
259358336,-2792,-440,14952,90,131,302
259361719,-2392,-464,14572,-210,440,33
259365224,-2852,-516,15208,-39,121,243
259368659,-2516,-576,14784,-50,295,168
259372154,-2856,-552,15164,18,128,304
259375513,-2492,-488,14708,-37,269,173
259378983,-2760,-456,14936,-84,275,151
259382453,-2676,-548,15072,33,158,211
259385836,-2744,-408,14996,39,321,207
259389219,-2528,-448,14784,-44,211,117
259392689,-2956,-408,15152,50,228,255
259396072,-2460,-472,14732,-154,224,153
259399654,-2940,-540,15180,-2,131,280
259403012,-2544,-452,14720,-103,277,161
259406569,-2876,-400,15212,-103,218,119
259410126,-2380,-536,14780,16,218,274
259413509,-2776,-560,15040,-102,295,29
259416979,-2524,-596,15060,126,166,292
259420449,-2468,-512,14836,-69,270,126
259423944,-2828,-372,15176,23,186,173
259427302,-2584,-532,14712,-46,306,201
259430772,-2744,-436,14896,-70,176,198
259434242,-2656,-472,14880,-31,254,201
259437712,-2648,-512,14976,-113,269,154
259441269,-2584,-424,14864,53,88,320
259444566,-2624,-536,14976,-105,366,104
259448170,-2584,-492,14992,149,54,388
259451506,-2544,-468,14844,-122,419,27
259454976,-2612,-540,14956,144,113,294
259458446,-2420,-436,14576,-75,321,98
259461829,-2956,-416,15052,-60,231,254
259465334,-2632,-400,14896,-23,122,254
259468769,-2724,-424,14984,-43,241,249
259472263,-2592,-516,14764,-80,178,184
259475709,-2680,-408,15092,-54,224,168
259479179,-2700,-444,14964,-66,255,217
259482649,-2712,-564,15028,-1,161,205
259486032,-2452,-500,14904,45,284,244
259489415,-2732,-412,15036,-63,271,39
259492799,-2392,-592,14884,73,279,199
259496182,-2780,-392,14992,-147,208,173
259499763,-2708,-360,15064,29,198,191
259503122,-2652,-484,14976,-117,225,178
259506679,-2872,-340,14980,-69,176,171
259510149,-2692,-484,14936,11,244,257
259513532,-2728,-460,14952,-78,214,146
259517002,-2800,-484,15012,8,214,228
259520298,-2652,-472,15068,-20,259,115
259523793,-2456,-492,14708,20,117,299
259527152,-2572,-436,14792,-187,501,-79
259530708,-2720,-468,14864,10,48,356
259534005,-2476,-508,14984,-139,375,59
259537475,-2932,-328,15088,-27,88,315
259540858,-2652,-376,15076,-116,249,100
259544415,-2744,-480,14960,-3,253,265
259547858,-2548,-460,14840,-72,248,90
259551181,-2936,-472,15224,10,265,271
259554565,-2468,-484,14904,-39,227,120
259558035,-2864,-352,15116,-8,290,170
259561418,-2496,-476,14644,-158,278,120
259564978,-2992,-384,15196,-116,235,124
259568566,-2348,-552,14716,-14,282,268
259572026,-2732,-352,15080,-149,219,98
259575471,-2860,-504,15156,86,153,346
259578855,-2480,-488,14908,-181,307,2
259582238,-2864,-364,15156,23,95,277
259585534,-2564,-472,14884,-55,315,154
259589004,-2936,-532,15080,34,202,162
259592388,-2492,-328,14996,38,326,147
259595771,-2612,-292,14720,-86,198,205
259599265,-2824,-456,15156,-12,180,214
259602711,-2560,-468,14880,-7,161,258
259606094,-2588,-540,14936,-179,294,61
259609564,-2748,-384,14960,-29,223,243
259613034,-2600,-616,14864,-103,246,124
259616591,-2664,-432,14888,96,190,338
259619974,-2588,-560,14976,-74,295,22
259623382,-2604,-472,15012,89,162,278
259626741,-2632,-436,14880,-75,242,105
259630211,-2828,-388,14908,-73,150,249
259633681,-2676,-364,14964,-141,323,117
259637237,-2888,-456,15280,-20,96,289
259640621,-2556,-580,15044,-3,297,168
259644004,-2744,-492,14988,-13,148,210
259647521,-2612,-524,14920,-18,282,112
259650944,-2896,-480,15260,-51,213,171
259654414,-2356,-504,14668,8,179,179
259657710,-2956,-284,14888,-114,380,68
259661180,-2700,-552,14896,13,164,226
259664564,-2596,-476,14788,-150,344,79
259668034,-2872,-484,15132,16,201,289
259671456,-2540,-512,14904,-40,188,173
259674911,-2836,-456,15020,-60,189,276
259678357,-2652,-444,14824,-162,239,98
259681827,-2876,-432,15152,41,271,219
259685210,-2524,-544,14836,-77,288,91
259688593,-2824,-300,14948,70,185,249
259691977,-2516,-460,14760,-43,353,144
259695447,-2652,-496,14880,8,146,224
259698768,-2708,-272,14896,-90,338,139
259702213,-2804,-564,15156,-62,142,192
259705683,-2620,-452,14864,-25,223,241
259709153,-2644,-440,14884,-135,287,108
259712710,-2680,-364,14704,-12,135,278
259716180,-2548,-492,14972,-57,331,134
259719650,-2788,-456,15012,21,141,229
259723058,-2768,-452,15100,155,254,240
259726503,-2488,-440,14724,-80,229,190
259729973,-2756,-520,15016,-67,230,131
259733443,-2620,-468,14912,-106,186,309
259737000,-2600,-524,14892,-164,234,57
259740470,-2544,-472,14844,2,226,278
259743766,-2668,-352,15008,-117,245,108
259747370,-2628,-484,14888,27,237,248
259750706,-2820,-380,14928,-64,252,84
259754090,-2728,-428,15016,49,160,225
259757473,-2872,-388,14904,-49,311,134
259760943,-2492,-472,14840,-47,194,131
259764413,-2828,-280,14932,-11,246,235
259767883,-2492,-596,14820,-147,292,96
259771356,-3116,-404,15200,-2,171,214
259774779,-2260,-472,14668,-119,185,235
259778293,-3060,-288,15184,-92,147,181
259781763,-2480,-532,14660,17,242,249
259785146,-2904,-488,15072,-57,221,147
259788616,-2620,-424,14880,116,179,357
259792086,-2744,-392,14864,-86,291,119
259795556,-2860,-484,15128,37,214,197
259798964,-2600,-528,15052,-12,297,185
259802409,-2648,-364,14908,-190,234,37
259805879,-2988,-364,15316,63,119,353
259809263,-2452,-600,14836,-168,263,95
259812733,-3132,-384,15032,20,55,335
259816029,-2480,-536,14840,-79,346,104
259819499,-3028,-336,15104,-14,155,196
259822994,-2644,-540,15044,41,319,128
259826352,-2816,-272,14952,16,135,237
259829736,-2356,-596,14724,-113,348,-37
259833292,-2828,-408,15080,-95,192,266
259836762,-2636,-472,14872,-60,161,215
259840232,-2720,-472,14972,-51,255,220
259843702,-2764,-400,15004,-135,196,188
259847308,-2732,-444,15000,27,265,175
259850642,-2576,-520,14908,-10,205,235
259854112,-2744,-572,15068,-43,185,159
259857582,-2836,-380,15064,-32,250,193
259861052,-2520,-580,14844,-21,238,115
259864522,-2808,-508,15016,-2,221,230
259867906,-2672,-468,14920,-133,277,120
259871466,-2796,-528,14980,-7,214,203
259874887,-2496,-352,14776,-26,218,256
259878316,-2696,-408,15044,-105,261,75
259881786,-2684,-484,15100,-12,258,233
259885256,-2916,-384,14960,-31,200,119
259888726,-2440,-544,14944,23,271,94
259892022,-2956,-476,15092,35,131,281
259895405,-2256,-344,14512,17,248,185
259898813,-2892,-332,15116,-56,269,240
259902259,-2404,-480,14764,-184,287,42
259905729,-3280,-440,15312,112,60,469
259909112,-2180,-572,14556,-227,355,-58
259912669,-3460,-296,15632,138,19,464
259916052,-2100,-520,14428,-83,326,73
259919435,-3140,-420,15372,-65,245,102
259922930,-2200,-508,14456,76,250,239
259926288,-2796,-456,15036,-87,257,49
259929672,-2576,-460,14924,3,238,161
259932968,-2704,-384,14784,-134,188,181
259936525,-2684,-512,15116,-19,151,211
259939995,-2640,-568,14968,-55,293,194
259943465,-2876,-360,15012,-47,160,214
259946984,-2572,-416,14772,-15,245,191
259950405,-2692,-400,15088,-102,252,102
259953962,-2500,-428,14804,62,158,265
259957345,-2856,-496,15152,-89,314,114
259960815,-2268,-532,14528,-55,178,158
259964285,-2964,-372,15112,-118,427,16
259967755,-2420,-476,14660,-49,159,245
259971225,-2908,-472,15148,-130,298,103
259974805,-2564,-460,14684,-13,211,311
259978286,-2664,-504,14936,-101,283,65
259981722,-2656,-596,15096,81,186,292
259985105,-2532,-368,14876,-52,221,87
259988488,-2860,-428,15176,37,169,234
259991871,-2628,-516,14828,-13,276,184
259995341,-2704,-396,14940,45,154,200
259998749,-2540,-408,14712,-39,299,178
260002195,-2680,-468,14784,-178,268,55
260005665,-2748,-488,15144,79,140,343
260009048,-2520,-516,14872,-135,250,70
260012518,-2736,-444,15144,17,168,208
260015901,-2588,-392,14976,-93,259,188
260019371,-2664,-484,15020,4,182,177
260022692,-2600,-528,14992,61,274,213
260026051,-2704,-444,15076,-34,169,184
260029521,-2568,-548,14708,-47,345,47
260032904,-2960,-476,15152,-49,155,279
260036374,-2452,-456,14808,-118,276,80
260039844,-2784,-548,15200,61,215,291
260043227,-2536,-500,14696,-150,202,148
260046886,-2976,-476,15028,22,197,279
260050167,-2384,-516,14888,-95,225,98
260053551,-2664,-412,14880,58,172,293
260056934,-2644,-540,14812,-72,300,79
260060317,-2804,-368,15200,89,115,278
260063700,-2464,-428,14540,-66,394,89
260067084,-2984,-444,15308,-57,184,159
260070554,-2588,-544,14928,-40,247,211
260074047,-2956,-456,15056,-100,187,138
260077580,-2424,-480,14696,-37,193,178
260081089,-2856,-508,15096,-105,269,127
260084607,-2528,-396,14788,41,95,309
260087904,-2584,-504,14928,-74,423,1
260091200,-2944,-472,15356,57,100,293
260094583,-2560,-492,14736,-3,321,116
260097991,-2700,-348,14932,-46,194,211
260101437,-2700,-288,14808,-80,255,111
260104907,-2816,-424,15176,-119,287,192
260108463,-2748,-320,14956,-44,106,266
260111933,-2504,-484,14812,-100,314,98
260115403,-2688,-280,14992,-48,181,247
260118873,-2588,-460,14856,-71,260,123
260122368,-2780,-452,15044,38,254,192
260125727,-2852,-424,14860,36,170,236
260129110,-2480,-540,15024,109,295,215
260132580,-2416,-604,14772,-108,184,103
260136137,-2888,-444,15168,-32,191,245
260139607,-2476,-472,14852,-95,236,168
260143077,-2912,-424,15092,-18,92,271
260146463,-2352,-436,14780,-81,350,147
260149978,-2892,-588,15192,-65,182,201
260153400,-2480,-492,14768,19,178,212
260156783,-2800,-556,15052,-102,336,43
260160253,-2664,-472,15020,61,158,240
260163636,-2884,-272,14840,-28,353,118
260167106,-2668,-496,15200,51,184,172
260170490,-2752,-372,14872,-85,242,267
260173983,-2620,-524,14948,-64,227,126
260177430,-2740,-436,14820,-24,173,283
260180903,-2544,-540,14760,-153,344,114
260184491,-2804,-408,14980,-33,124,204
260187926,-2608,-520,14840,-29,318,175
260191396,-2608,-372,14820,43,181,202
260194780,-2736,-500,15112,-26,361,126
260198274,-2516,-524,14920,11,150,235
260201633,-2728,-412,14932,-103,338,92
260205103,-2720,-496,15008,37,243,265
260208486,-2516,-484,15036,-116,235,95
260211956,-2904,-312,15096,-4,220,285
260215339,-2728,-472,15080,-113,208,152
260218896,-2696,-400,15080,35,189,242
260222304,-2732,-424,14872,-61,231,145
260225749,-2704,-568,14992,82,201,270
260229133,-2684,-376,14808,-23,305,196
260232603,-2536,-516,14956,-64,256,58
260235986,-2948,-408,15268,75,246,260
260239369,-2516,-396,14672,-187,198,142
260242926,-2820,-508,15268,14,176,241
260246313,-2496,-672,14740,-129,272,164
260249914,-2904,-256,15116,-6,116,269
260253249,-2312,-396,14828,-32,327,162
260256719,-3072,-496,15028,-47,222,164
260260189,-2500,-420,14780,81,138,283
260263572,-2760,-512,14904,-107,345,73
260267042,-2500,-500,14672,-48,168,200
260270512,-2836,-376,15036,-85,349,111
260274006,-2676,-656,14964,-85,260,155
260277452,-2776,-472,14968,-81,205,194
260280922,-2676,-452,15084,-16,285,212
260284396,-2688,-628,15008,-57,152,201
260287897,-2664,-452,15028,-16,231,238
260291332,-2572,-452,14760,-17,243,154
260294802,-2752,-412,14920,-1,163,263
260298210,-2772,-452,14840,-1,250,160
260301569,-2568,-424,14788,52,250,170
260304952,-2536,-372,14712,-61,261,249
260308422,-2812,-352,15148,-95,189,156
260311892,-2612,-460,14852,-18,227,224
260315362,-2736,-580,15120,-151,242,72
260318832,-2756,-348,14964,-36,147,261
260322327,-2676,-536,14988,-77,318,123
260325772,-2804,-468,15076,39,123,246
260329155,-2592,-364,14816,-57,356,117
260332625,-2892,-324,15040,13,152,290
260336009,-2604,-372,14868,12,287,147
260339392,-2788,-528,15084,-83,194,232
260342862,-2616,-396,14708,-67,213,144
260346335,-2764,-484,15088,-131,342,147
260349937,-2564,-548,14976,-36,110,204
260353359,-2872,-480,14940,-76,299,107
260356829,-2628,-504,14976,37,217,260
260360212,-2636,-512,14956,-40,257,134
260363682,-2868,-424,15112,49,318,193
260367065,-2808,-344,14732,103,54,398
260370448,-2160,-656,14712,-170,427,-10
260374028,-2824,-420,14952,-40,75,329
260377388,-2512,-364,14736,-135,321,61
260380858,-3080,-344,15108,79,134,357
260384242,-2220,-512,14488,-79,236,92
260387628,-2876,-404,15272,74,220,310
260391043,-2276,-528,14488,-33,177,186
260394478,-3028,-404,15128,33,183,210
260397886,-2592,-448,14812,53,224,253
260401245,-2712,-592,14904,6,279,128
260404541,-2840,-436,15072,16,265,197
260407924,-2432,-568,14936,-121,173,188
260411481,-2880,-356,15148,25,191,287
260414864,-2380,-456,14708,-36,159,211
260418334,-2844,-428,15180,-130,347,75
260421829,-2608,-444,15092,8,195,259
260425101,-2552,-496,15160,-24,182,155
260428571,-2592,-484,14888,-27,292,137
260432041,-2728,-332,14968,-8,160,213
260435424,-2548,-472,14972,7,287,129
260438721,-2640,-400,14928,-83,140,244
260442191,-2672,-388,14972,-96,315,109
260445661,-2616,-444,14768,-54,215,286
260449179,-2664,-476,15140,-65,243,153
260452601,-2672,-428,15104,5,242,302
260455897,-2460,-452,14728,-86,207,111
260459367,-2972,-432,15108,67,194,287
260462750,-2572,-444,14844,-31,262,163
260466220,-2816,-428,15052,63,170,254
260469604,-2580,-392,14860,-135,353,53
260473097,-2848,-304,14992,-96,214,133
260476544,-2704,-496,14932,5,263,232
260479840,-2664,-504,14972,-134,154,172
260483397,-2952,-360,15060,-7,177,250
260486780,-2612,-548,14640,-141,297,78
260490250,-2956,-488,15308,66,94,279
260493582,-2648,-496,14852,-123,365,109
260497128,-2908,-464,15124,54,143,237
260500487,-2408,-412,14648,-20,321,137
260503957,-2848,-592,15156,-65,191,173
260507427,-2624,-364,14828,-82,185,196
260510897,-2908,-472,15104,-50,289,170
260514367,-2592,-444,14732,-105,195,171
260517923,-2920,-428,15044,-68,311,134
260521397,-2584,-472,14960,-38,185,193
260524888,-2956,-452,15132,13,258,206
260528247,-2364,-640,14968,-28,326,96
260531630,-2980,-484,15192,-10,211,166
260535100,-2532,-392,14808,-9,218,268
260538483,-2936,-328,15164,-83,277,48
260541866,-2396,-376,14744,-5,210,318
260545250,-2660,-540,15016,-131,267,105
260548867,-2520,-452,14708,26,108,347
260552190,-2704,-432,14876,-156,363,114
260555746,-2560,-608,15080,84,59,322
260559043,-2624,-312,14620,-75,348,96
260562426,-2664,-528,14824,17,168,196
260565809,-2748,-548,14812,-30,332,119
260569279,-2712,-520,14944,-28,227,184
260572773,-2568,-460,14828,14,156,293
260576133,-2828,-392,14904,-123,311,159
260579689,-2364,-644,14732,20,139,226
260583073,-2988,-340,15048,23,147,296
260586456,-2300,-524,14664,-8,180,210
260589839,-2760,-556,15160,-155,362,25
260593313,-2480,-472,14908,64,215,302
260596735,-2844,-396,14936,-68,274,76
260600076,-2796,-496,15180,71,234,284
260603459,-2668,-396,14916,-210,371,-77
260607016,-3132,-392,15484,129,22,464
260610399,-2312,-472,14704,-212,370,-42
260613956,-3164,-428,15248,84,70,355
260617252,-2604,-364,14828,-133,340,100
260620809,-2892,-452,15220,53,84,311
260624130,-2264,-484,14800,-135,381,11
260627575,-2956,-368,15236,-44,137,239
260631045,-2604,-528,14884,22,266,158
260634429,-2952,-388,15056,-84,276,131
260637899,-2700,-428,15108,163,83,363
260641282,-2604,-372,14868,-251,430,13
260644752,-3012,-384,15248,94,109,294
260648183,-2364,-432,14704,-105,347,118
260651692,-3116,-412,15140,-53,151,205
260655162,-2516,-596,14996,-10,238,151
260658632,-2836,-504,15128,-112,244,154
260662189,-2520,-464,14832,-25,197,170
260665659,-3032,-344,15064,8,283,231
260668955,-2372,-540,14760,-46,246,75
260672363,-2876,-324,14868,-25,318,163
260675808,-2760,-388,14980,-16,140,243
260679278,-2720,-568,14984,-51,239,175
260682748,-2704,-516,14996,-93,164,240
260686218,-2744,-424,14864,-62,171,183
260689688,-2692,-416,15028,-131,356,66
260693158,-2824,-392,15008,89,54,367
260696458,-2288,-556,14692,-34,355,64
260699880,-3048,-416,15336,101,125,353
260703308,-2152,-452,14384,-35,276,102
260706778,-3140,-388,15356,-28,238,231
260710248,-2416,-476,14512,2,110,261
260713545,-2664,-552,15216,-207,413,8
260716928,-2896,-368,15140,15,73,352
260720224,-2488,-380,14752,-70,347,79
260723632,-2820,-488,15160,-32,138,245
260727078,-2384,-472,14616,-59,256,141
260730548,-2952,-436,15320,-10,288,170
260734018,-2468,-412,14636,-24,169,199
260737488,-2688,-556,14880,-90,363,76
260740871,-2796,-496,14996,-10,205,169
260744341,-2600,-504,14988,-97,239,174
260747859,-2840,-416,15232,-5,206,261
260751194,-2460,-628,14952,-133,229,90
260754664,-2976,-408,15232,0,183,294
260757961,-2312,-560,14716,-52,255,83
260761344,-2964,-504,15276,11,273,195
260764727,-2484,-460,14864,-27,231,147
260768197,-2856,-444,14896,55,224,217
260771584,-2348,-404,14772,-109,242,130
260775162,-3020,-404,15136,-2,126,227
260778520,-2408,-424,14648,-38,209,308
260781990,-2744,-352,15088,-124,270,65
260785460,-2756,-464,14924,23,195,304
260788844,-2732,-440,14916,-124,305,131
260792400,-2628,-552,15032,28,186,194
260795784,-2472,-468,14804,-7,285,173
260799190,-2848,-492,15212,-12,204,160
260802672,-2764,-368,14716,-30,196,183
260806107,-2556,-492,14960,10,318,130
260809490,-2948,-352,15124,-67,148,242
260812960,-2180,-532,14760,-66,388,124
260816430,-3020,-280,15084,-55,138,215
260819900,-2564,-504,14900,-53,252,122
260823395,-2820,-420,14912,-44,159,252
260826840,-2524,-432,14860,-63,215,143
260830310,-2936,-448,14952,-9,263,213
260833693,-2332,-496,14704,-139,345,-21
260837250,-3048,-324,15148,154,112,399
260840720,-2560,-584,14920,-151,419,5
260844103,-3324,-320,15196,36,128,304
260847535,-2120,-624,14444,-149,402,50
260850957,-3268,-328,15348,-72,147,212
260854427,-2280,-536,14708,-66,283,116
260857897,-3092,-424,15528,-112,267,164
260861453,-2516,-544,14736,-1,161,188
260864837,-2880,-500,15196,-105,383,92
260868307,-2848,-376,15040,109,112,311
260871801,-2544,-432,14744,-96,346,53
260875160,-2888,-444,15164,19,130,239
260878543,-2444,-596,14708,-159,304,111
260882100,-2996,-448,15300,21,104,332
260885483,-2280,-388,14280,-191,243,75
260888958,-3180,-456,15508,3,288,216
260892250,-2288,-688,14744,21,99,284
260895546,-2672,-436,14900,-67,314,120
260899039,-2572,-664,15140,68,78,340
260902316,-2432,-372,14568,-126,315,36
260905818,-2776,-384,15140,25,216,277
260909166,-2484,-520,14660,-116,280,17
260912636,-3020,-360,15196,103,156,333
260916106,-2424,-584,14648,-31,153,270
260919576,-2720,-468,15088,-100,243,114
260923157,-2920,-356,15112,-62,206,194
260926603,-2440,-480,14812,-95,189,179
260930073,-2828,-476,15036,-29,296,172
260933543,-2748,-308,14836,17,174,202
260936926,-2552,-448,14924,-34,309,119
260940396,-3004,-312,14844,-33,192,286
260943866,-2768,-440,15152,0,275,111
260947212,-2520,-592,14740,-112,349,92
260950632,-3064,-280,15264,-78,157,181
260954102,-2420,-508,14856,-24,216,250
260957572,-3004,-396,15288,-102,215,149
260961129,-2552,-536,14872,-7,230,207
260964512,-2956,-364,15100,23,205,275
260967896,-2536,-508,15032,38,223,160
260971282,-2816,-464,15056,45,264,236
260974687,-2476,-340,14792,-63,203,163
260978132,-2804,-364,14992,-41,221,167
260981602,-2708,-408,14900,-77,226,177
260985072,-2724,-496,15124,-59,207,160
260988542,-2752,-468,15084,-15,280,224
260992012,-2560,-528,14864,-72,154,212
260995482,-2848,-480,15200,15,275,204
260998889,-2656,-560,14968,10,120,268
261002249,-2632,-436,14800,-29,238,120
261005722,-2648,-368,15000,2,285,221
261009050,-2684,-468,14884,-38,179,178
261012485,-2780,-504,15136,-87,320,152
261015955,-2760,-464,14936,2,120,228
261019252,-2668,-408,14696,-67,236,155
261022746,-2936,-352,15192,-120,236,162
261026278,-2288,-552,14816,-74,154,208
261029748,-3048,-500,15276,-67,350,71
261033132,-2608,-548,14912,6,150,212
261036428,-2932,-324,15004,1,297,117
261039725,-2636,-608,14928,14,159,270
261043108,-2520,-344,14752,-138,222,80
261046581,-2544,-360,14888,-107,261,246
261050237,-2840,-408,14852,-101,145,203
261053691,-2548,-580,14996,-26,262,231
261057161,-2780,-372,15004,-96,237,187
261060631,-2748,-532,15156,9,199,198
261063928,-2656,-508,15016,-7,220,196
261067311,-2828,-444,14992,-80,203,113
261070781,-2624,-516,15260,110,200,295
261074276,-2868,-332,14832,-97,262,113
261077721,-2576,-624,15140,23,252,215
261081104,-2632,-368,14704,-183,287,108
261084661,-2732,-504,14928,88,77,320
261087958,-2512,-436,14756,-105,369,80
261091428,-2728,-424,15136,31,77,276
261094724,-2512,-448,14744,-84,314,104
261098217,-2880,-484,15184,-5,225,241
261101577,-2568,-480,14784,19,240,185
261104961,-2880,-456,15048,34,257,261
261108344,-2608,-408,14828,-1,184,173
261111766,-2724,-404,14892,-66,311,162
261115197,-2468,-488,14800,-91,191,189
261118667,-2852,-472,15124,-44,278,182
261122162,-2404,-628,14812,-158,259,115
261125694,-2864,-468,15240,-68,253,146
261129164,-2464,-544,15028,-4,252,229
261132547,-2772,-376,14948,10,175,173
261135930,-2656,-448,15012,13,263,192
261139314,-3000,-348,15120,28,150,218
261142697,-2376,-552,14732,-21,249,197
261146170,-3044,-380,15136,-102,308,133
261149772,-2488,-512,15000,-51,177,165
261153194,-3036,-236,15020,-30,278,200
261156664,-2464,-612,14880,14,121,235
261160047,-2852,-416,15012,-87,239,174
261163517,-2636,-456,15076,-11,185,250
261166987,-2708,-380,14956,-100,192,149
261170544,-2792,-520,15080,68,289,213
261173951,-2696,-500,14708,-53,188,174
261177397,-2564,-376,14828,-36,308,123
261180867,-2688,-440,14964,-98,244,167
261184337,-2692,-400,15016,-83,184,219
261187807,-2572,-384,14764,-126,304,163
261191364,-2924,-512,15016,-110,216,117
261194920,-2676,-424,14972,2,263,183
261198240,-2796,-528,14936,4,187,204
261201513,-2704,-540,14928,75,238,239
261204897,-2640,-436,14992,-31,246,186
261208367,-2908,-432,14872,3,229,156
261211667,-2624,-420,14844,-43,339,172
261215168,-3044,-228,14972,-104,219,96
261218603,-2408,-592,14992,-17,246,168
261222098,-3132,-260,15120,-211,254,100
261225630,-2604,-544,15040,26,125,317
261229013,-2884,-432,14960,-193,416,-16
261232570,-2844,-480,15192,163,71,354
261235953,-2668,-484,14952,-16,403,110
261239423,-2724,-532,14956,3,128,272
261242720,-2496,-456,14744,-58,312,81
261246103,-2860,-408,15024,-114,222,160
261249708,-2388,-568,14780,-92,247,94
261253043,-2880,-480,15020,-75,249,224
261256513,-2532,-616,14836,-108,193,193
261260070,-2744,-372,15200,-4,272,183
261263453,-2536,-524,14756,-68,138,251
261266923,-2860,-312,15104,-10,223,198
261270393,-2500,-464,14768,-24,229,189
261273887,-2732,-376,15092,-47,223,117
261277333,-2600,-492,14852,65,250,266
261280716,-2844,-516,15144,-110,207,139
261284273,-2632,-384,14708,4,208,316
261287569,-2696,-340,14912,-158,308,73
261291039,-2456,-600,15004,15,135,300
261294423,-2820,-420,15056,-1,221,253
261297829,-2280,-652,14840,-63,194,105
261301276,-3052,-336,15120,-17,292,172
261304746,-2520,-496,14816,1,212,136
261308042,-2840,-416,14968,13,299,215
261311426,-2664,-456,14904,-6,223,210
261314812,-2692,-428,14996,-131,302,55
261318314,-2812,-472,15088,-91,220,273
261321773,-2736,-324,15004,-65,177,187
261325219,-2576,-604,15012,7,226,239
261328515,-2652,-416,14848,-104,292,145
261332072,-2876,-476,15192,24,181,224
261335455,-2420,-508,14764,-56,348,108
261338925,-2976,-340,15200,-4,152,219
261342309,-2400,-476,14636,29,321,180
261345692,-2840,-488,15112,-37,149,241
261349210,-2452,-472,14768,-12,272,197
261352632,-3028,-456,15364,-138,309,81
261356102,-2456,-400,14648,8,147,311
261359398,-2628,-468,14984,-135,350,124
261362955,-2672,-452,15032,83,51,356
261366252,-2488,-544,14740,-159,394,-23
261369808,-2904,-528,15376,123,55,398
261373216,-2148,-392,14440,-62,376,28
261376575,-3180,-196,15220,106,110,397
261380045,-2140,-592,14648,-95,306,34
261383428,-3148,-384,15388,62,207,346
261386811,-2324,-552,14736,2,137,228
261390108,-2808,-312,14844,-150,365,92
261393578,-2652,-400,14984,-23,159,196
261397071,-2792,-416,14972,-27,194,243
261400518,-2796,-432,15048,-70,271,170
261403988,-2552,-544,14932,-30,211,148
261407458,-2836,-360,15036,53,232,276
261410841,-2460,-512,14672,-28,261,69
261414224,-2936,-468,15112,53,159,298
261417608,-2468,-508,14616,-155,248,123
261421203,-2912,-456,15088,-28,132,270
261424659,-2536,-364,14648,-93,272,193
261428104,-2800,-436,15024,-87,184,170
261431574,-2560,-424,14872,60,193,316
261434958,-2656,-536,14832,-34,225,111
261438428,-2692,-496,15256,48,275,134
261441811,-2536,-488,15088,25,237,220
261445194,-2780,-416,14884,-28,157,231
261448713,-2652,-456,14796,-12,277,218
261452134,-2736,-428,14772,-167,209,136
261455691,-2664,-532,15048,83,164,312
261459074,-2628,-420,14780,-216,321,48
261462544,-2832,-496,15032,31,133,268
261465927,-2552,-372,14884,-57,280,153
261469397,-2552,-600,15060,-17,236,127
261472892,-2944,-436,15144,94,204,326
261476251,-2620,-332,14784,-92,299,61
261479634,-2868,-504,15136,-12,240,200
261483104,-2672,-400,14912,-59,257,184
261486574,-2708,-580,14936,-79,231,136
261490044,-2812,-424,15056,20,234,245
261493427,-2788,-476,15136,-127,215,107
261497007,-2656,-388,15000,-51,235,154
261500454,-2848,-612,15392,-56,226,212
261503924,-2516,-488,14748,-21,184,176
261507394,-3024,-384,15320,-38,381,128
261510864,-2604,-532,14924,182,-7,451
261514247,-2812,-312,15052,-207,457,-73
261517804,-2976,-476,15204,53,70,356
261521104,-2416,-644,14672,-178,332,-15
261524700,-3000,-476,15352,1,176,355
261527954,-2332,-496,14588,-140,276,51
261531424,-2884,-412,15080,11,232,274
261534807,-2668,-416,14880,-59,225,130
261538277,-2636,-440,15004,-13,220,198
261541747,-2836,-532,15120,18,258,194
261545130,-2676,-428,14932,-48,214,131
261548661,-2648,-364,14892,51,209,267
261551983,-2604,-416,14896,-141,282,85
261555453,-2580,-460,15080,44,157,273
261558837,-2684,-320,14772,-134,285,152
261562393,-2764,-412,14920,-22,148,258
261565863,-2580,-484,14900,-93,315,161
261569333,-2876,-364,15060,73,104,305
261572741,-2364,-592,14760,-24,341,144
261576187,-3020,-344,15128,8,178,253
261579483,-2460,-516,14788,-10,249,118
261582953,-2876,-464,15044,-60,318,177
261586423,-2652,-276,14800,-18,93,274
261589806,-2676,-452,15076,1,276,171
261593103,-2588,-428,14888,-45,113,242
261596576,-2704,-472,14856,-52,288,156
261600067,-2836,-556,15056,-77,274,141
261603513,-2744,-372,14944,35,179,223
261606896,-2536,-564,15088,-15,356,139
261610366,-2704,-352,14836,42,114,240
261613749,-2564,-496,14904,-21,297,110
261617219,-2540,-496,14948,-28,178,247
261620689,-2732,-304,14984,-145,214,171
261624273,-2776,-380,15104,123,169,325
261627751,-2360,-444,14548,-236,270,-17
261631273,-3092,-476,15392,41,209,292
261634656,-2324,-444,14608,-123,276,90
261638126,-3188,-496,15332,76,208,250
261641509,-2328,-492,14700,66,152,251
261644893,-3040,-484,15176,-50,249,112
261648411,-2644,-412,14852,60,192,366
261651746,-2556,-416,14796,-181,272,23
261655216,-2504,-584,14712,11,223,267
261658599,-2892,-356,15084,-109,175,241
261662156,-2384,-524,14824,-25,228,169
261665626,-2928,-420,15092,-48,261,208
261669096,-2680,-488,14988,64,156,197
261672504,-2612,-560,15060,-104,344,136
261676036,-2816,-584,14996,-1,118,265
261679419,-2724,-304,14720,81,247,252
261682802,-2736,-340,15092,-88,256,126
261686272,-2664,-424,14956,-8,180,215
261689656,-2760,-424,14924,-96,333,162
261693126,-2504,-508,14768,65,50,340
261696426,-2664,-392,14772,-201,370,36
261699917,-2800,-452,15112,19,141,282
261703275,-2256,-464,14708,-96,319,55
261706659,-2924,-352,15060,42,245,237
261710042,-2488,-544,14904,111,120,309
261713512,-2528,-544,14824,-63,323,59
261716895,-2820,-372,14956,24,92,295
261720192,-2432,-476,14528,-169,352,43
261723685,-2768,-380,15020,-6,134,356
261727045,-2400,-492,14680,-89,252,125
261730550,-2980,-560,15292,4,239,256
261733811,-2492,-448,14900,-28,175,201
261737281,-2768,-464,15184,-4,341,182
261740665,-2484,-628,14864,-13,152,272
261744135,-2756,-300,14800,-43,249,142
261747653,-2580,-324,14872,-29,263,195
261751075,-2748,-456,15064,-75,232,112
261754545,-2712,-300,14856,-84,258,202
261758015,-2716,-536,14900,-62,198,167
261761485,-2664,-496,14928,-24,163,230
261764955,-2708,-424,14900,-158,276,119
261768511,-2704,-488,14908,-6,154,181
261771919,-2752,-424,15064,9,308,187
261775191,-2684,-496,14960,22,146,197
261778574,-2620,-524,14912,36,248,163
261781958,-2608,-432,14736,-116,210,181
261785514,-2868,-404,14984,-23,220,147
261788984,-2528,-472,14880,-137,272,171
261792541,-2756,-380,15056,-15,135,240
261796011,-2532,-416,14912,-78,296,142
261799506,-2828,-496,15144,-89,217,222
261802951,-2592,-420,14816,6,223,209
261806248,-2644,-420,14820,-39,298,157
261809718,-2708,-532,14956,63,122,270
261813101,-2552,-560,14988,-13,325,111
261816571,-2476,-528,14720,-15,195,227
261820041,-2744,-280,14916,-94,293,92
261823447,-2588,-480,14936,-44,277,227
261826894,-2640,-492,15044,-34,176,184
261830367,-2696,-380,14848,-51,258,184
261833869,-2632,-388,14904,-29,126,244
261837304,-2524,-620,14988,-84,262,91
261840687,-2848,-476,14988,61,162,299
261844071,-2364,-504,14596,-36,295,50
261847502,-2996,-436,15240,150,222,346
261850924,-2392,-484,14608,-142,229,80
261854394,-3028,-400,15220,26,137,305
261857777,-2340,-480,14760,-104,232,187
261861334,-3072,-464,15176,-81,129,241
261864804,-2504,-476,14628,-12,253,237
261868274,-2880,-476,15168,-45,141,167
261871768,-2572,-556,14752,42,240,254
261875127,-2664,-504,14900,-69,245,151
261878597,-2444,-476,14832,37,230,214
261881980,-2752,-428,15080,-102,288,81
261885450,-2504,-596,14972,-21,189,155
261888920,-2860,-360,14944,-99,345,122
261892390,-2552,-552,14888,-50,199,232
261895860,-2736,-492,15068,-67,259,186
261899355,-2672,-476,15004,-115,238,218
261902887,-2736,-448,14868,-13,189,173
261906357,-2604,-516,14968,23,274,233
261909740,-2748,-416,14860,-25,225,136
261913210,-2516,-440,15044,-36,281,113
261916680,-2956,-300,14956,-10,176,263
261920150,-2372,-484,14952,-51,245,51
261923557,-2692,-492,15092,-93,288,207
261927004,-2688,-532,15012,-58,161,206
261930474,-2776,-404,15160,-57,303,157
261933979,-2644,-480,15036,-64,166,228
261937414,-2832,-448,15040,-14,220,152
261940884,-2632,-568,14952,26,194,264
261944267,-2820,-468,15012,-60,260,88
261947700,-2784,-324,14928,52,227,283
261951033,-2724,-424,14920,-65,209,139
261954503,-2588,-452,14876,28,217,263
261957887,-2724,-420,15060,-123,316,139
261961443,-2548,-564,15104,49,94,339
261964740,-2588,-448,14884,-208,377,45
261968210,-2776,-400,15068,-41,82,270
261971597,-2480,-512,14876,-105,348,78
261975088,-2876,-392,15000,16,119,331
261978446,-2360,-580,14664,-44,317,56
261981830,-2860,-420,15188,65,254,244
261985213,-2428,-408,14708,-19,155,210
261988683,-2740,-416,14948,-71,344,104
261992153,-2708,-604,15036,-62,222,194
261995623,-2684,-452,14768,-34,190,247
261999117,-2788,-428,15012,-144,304,139
262002650,-2760,-412,15056,-42,111,251
262006120,-2620,-448,15032,26,295,169
262009503,-2756,-388,14784,-31,126,236
262012973,-3028,-472,15304,-7,237,133
262016356,-2424,-436,14796,48,218,286
262019739,-2580,-504,14732,-127,315,9
262023146,-2668,-436,14780,65,193,345
262026506,-2692,-544,14896,-132,260,52
262029976,-2680,-384,14760,40,112,354
262033359,-2508,-592,14892,-171,261,77
262036864,-2928,-424,15304,46,72,334
262040126,-2444,-612,14780,-102,420,65
262043596,-2984,-432,15336,-4,151,238
262047081,-2388,-472,14664,-63,353,129
262050449,-2960,-424,15020,-27,189,132
262053919,-2620,-496,14868,-9,202,195
262057302,-2820,-564,14952,-135,303,136
262060859,-2796,-464,15124,-78,138,212
262064329,-2760,-344,14904,-143,325,164
262067886,-2552,-480,14940,-71,180,160
262071359,-2792,-516,15112,-62,282,155
262074850,-2496,-376,14648,15,240,210
262078209,-2760,-504,15216,-37,248,108
262081679,-2920,-400,15288,146,198,376
262085149,-2552,-364,14732,-108,273,72
262088619,-2764,-436,15036,-12,227,226
262092089,-2520,-408,14660,-121,211,139
262095646,-3016,-364,15168,-19,108,292
262099140,-2360,-456,14648,-119,270,158
262102672,-2956,-340,15156,-60,178,169
262106142,-2592,-388,14800,42,198,284
262109526,-2680,-328,14704,-102,291,106
262113082,-2876,-456,15076,107,138,355
262116552,-2312,-628,14504,-137,468,-75
262120109,-3124,-352,15312,25,118,257
262123516,-2288,-428,14712,-103,378,77
262126962,-2748,-724,15364,19,96,292
262130259,-2400,-424,14576,-74,299,139
262133729,-3120,-384,15336,33,136,355
262137151,-2088,-604,14532,-74,204,149
262140582,-2980,-372,15088,-32,216,256
262144052,-2188,-488,14668,-16,186,205
262147570,-3088,-392,15144,63,152,287
262150905,-2272,-484,14604,5,310,91
262154115,-2860,-396,15168,-70,189,147
262157585,-2584,-516,14648,-59,345,180
262161055,-2648,-684,15256,-54,154,202
262164525,-2764,-340,14824,-78,218,231
262167995,-2684,-432,14904,-106,151,206
262171555,-2700,-512,15024,-36,226,155
262175046,-2612,-452,14896,-38,301,217
262178492,-2820,-396,14920,8,195,183
262181788,-2604,-456,14856,74,259,259
262185172,-2844,-292,14900,-63,191,113
262188642,-2784,-392,14912,26,252,196
262192025,-2724,-512,14980,-147,238,116
262195582,-2824,-452,15108,4,179,215
262198903,-2480,-488,14876,-70,277,225
262202348,-2840,-464,14896,-101,165,199
262205905,-2696,-444,14952,-22,260,229
262209375,-2632,-504,15044,-88,247,135
262212845,-2808,-408,15104,34,197,208
262216228,-2592,-540,14964,-16,272,140
262219698,-2748,-472,14912,55,159,215
262223105,-2496,-516,14888,-30,348,126
262226551,-2788,-416,14976,-53,84,309
262229935,-2448,-540,15108,-97,323,125
262233405,-2908,-344,15084,-84,126,285
262236878,-2460,-468,14832,-1,178,218
262240293,-2868,-420,15196,-18,290,232
262243728,-2536,-388,14892,25,149,202
262247159,-2608,-556,14884,-105,436,62
262250581,-2768,-432,14976,52,129,295
262253964,-2604,-452,14764,-57,331,97
262257348,-2860,-280,15216,-1,261,273
262260731,-2400,-504,14816,-60,154,181
262264201,-3028,-436,15176,36,217,287
262267584,-2148,-536,14556,-25,102,272
262271054,-2912,-420,15064,-149,455,-62
262274635,-2504,-488,14892,57,132,359
262277994,-2636,-456,14864,-122,350,-19
262281551,-2620,-512,15004,129,216,342
262285021,-2632,-420,14896,-72,301,29
262288404,-2420,-488,14740,138,122,424
262291874,-2660,-304,14852,-190,392,-87
262295431,-2816,-564,15244,21,127,280
262298839,-2532,-292,14604,-192,310,107
262302371,-3004,-432,15244,62,29,351
262305667,-2280,-584,14548,-65,288,169
262309137,-2972,-364,15112,-56,155,214
262312607,-2652,-504,14848,117,249,224
262316077,-2628,-464,14900,-63,334,109
262319547,-2916,-372,14916,30,152,261
262322954,-2280,-580,14616,-129,357,41
262326401,-2900,-492,15128,41,11,418
262329697,-2276,-460,14680,-161,470,-31
262333254,-2896,-524,15116,120,23,421
262336637,-2156,-516,14308,-107,343,54
262340111,-3220,-320,15532,-9,164,349
262343525,-2316,-580,14600,38,138,289
262346922,-2956,-404,14984,-179,372,72
262350344,-2584,-420,14776,74,129,243
262353727,-2672,-456,14784,-42,397,99
262357110,-2756,-464,15156,-8,217,176
262360493,-2696,-452,14916,-18,237,207
262363963,-2556,-508,14876,-134,337,112
262367520,-3088,-280,15176,-43,101,296
262370990,-2392,-636,14916,-122,336,74
262374485,-2788,-496,15044,-54,168,212
262377930,-2728,-472,14936,7,196,206
262381227,-2636,-524,14984,-65,296,150
262384697,-3080,-320,15144,65,148,246
262388080,-2384,-560,14860,27,372,77
262391376,-2780,-424,14968,-53,96,254
262394760,-2368,-500,14624,-152,426,18
262398254,-2772,-684,15264,54,87,376
262401526,-2576,-400,14656,-92,256,114
262404996,-2880,-464,15092,10,198,287
262408379,-2500,-652,14880,-49,172,169
262411849,-2676,-404,14864,-51,311,114
262415319,-2348,-620,14784,22,123,296
262418703,-2676,-364,14808,-118,417,-53
262422283,-2940,-360,15136,163,86,458
262425643,-2184,-476,14452,-161,365,-49
262429199,-2928,-316,15076,134,80,467
262432583,-2176,-584,14648,-194,317,-31
262436139,-3312,-468,15452,89,5,413
262439349,-2068,-520,14484,-126,287,108
262442906,-3092,-392,15296,58,88,336
262446241,-2368,-524,14664,33,333,187
262449634,-2856,-384,15004,-57,204,131
262453056,-2464,-460,14712,76,228,251
262456439,-2636,-564,14932,-143,266,82
262459909,-2796,-268,15032,-18,167,235
262463379,-2592,-344,14824,-123,322,72
262466849,-2836,-468,15344,72,107,314
262470232,-2336,-420,14628,-183,415,33
262473727,-3244,-380,15408,16,33,336
262476999,-2420,-584,14520,-95,309,94
262480382,-3144,-408,15224,-46,161,245
262483852,-2208,-556,14712,-47,296,61
262487235,-3236,-292,15320,73,193,334
262490623,-1916,-552,14568,-93,385,-39
262494088,-3336,-268,15224,-43,266,204
262497583,-2388,-500,14792,-119,300,149
262501115,-3044,-448,15084,-127,234,112
262504672,-2564,-584,14992,4,232,262
262507968,-2904,-468,15336,-152,229,27
262511438,-2656,-448,15016,65,188,339
262514822,-2688,-436,15004,-127,340,20
262518292,-2904,-532,15284,89,198,266
262521698,-2552,-588,14796,-23,290,178
262525145,-2860,-476,14984,-32,219,121
262528615,-2736,-504,14976,-21,306,197
262532085,-2724,-400,15088,-137,237,71
262535555,-2948,-496,15280,93,131,360
262538938,-2536,-552,14876,-173,350,18
262542408,-2984,-420,15300,62,52,346
262545705,-2464,-384,14780,-193,421,-17
262549341,-3112,-544,15424,30,142,254
262552645,-2324,-552,14644,-58,388,103
262556115,-3060,-428,15336,-29,236,77
262559498,-2508,-608,14984,49,208,221
262562881,-2880,-424,14880,-162,296,89
262566351,-2688,-404,14904,14,172,249
262569734,-2780,-400,14920,-136,334,143
262573316,-2724,-460,14872,-26,81,294
262576674,-2748,-528,15036,-44,280,141
262580144,-2700,-460,14844,-34,179,207
262583614,-2704,-576,14936,7,198,207
262586911,-2708,-404,15036,-31,317,114
262590381,-2552,-448,14804,-58,213,138
262593851,-2856,-392,15088,11,267,262
262597259,-2340,-460,14624,-69,175,173
262600704,-3212,-476,15496,20,272,227
262604087,-2308,-520,14640,29,74,339
262607384,-2616,-536,14960,-102,264,82
262610854,-2640,-444,14836,13,114,377
262614237,-2452,-504,14640,-170,327,21
262617707,-2860,-504,15100,64,177,352
262621094,-2640,-384,14972,8,214,121
262624411,-2656,-416,14896,39,260,171
262627770,-2660,-460,15084,-61,316,43
262631153,-2912,-408,15120,52,131,319
262634537,-2528,-400,14680,-148,313,108
262638093,-2876,-460,14968,-39,150,246
262641563,-2612,-656,14980,-55,313,85
262644947,-2704,-448,15072,-116,175,202
262648551,-2716,-432,14988,54,247,149
262651922,-2648,-588,15020,-26,258,227
262655357,-2688,-364,14864,-3,166,213
262658740,-2804,-436,14900,-21,290,173
262662210,-2704,-480,14844,-128,219,100
262665767,-2608,-432,14804,-48,226,213
262669237,-2796,-524,15084,-35,298,170
262672731,-2632,-424,14692,-57,129,249
262676177,-2804,-464,15000,-11,248,200
262679647,-2500,-564,14828,-44,132,218
262683117,-2832,-420,14952,-90,373,38
262686500,-2480,-624,14956,14,199,258
262689883,-2680,-364,14960,14,222,198
262693266,-2720,-564,14984,64,307,165
262696674,-2660,-484,14912,-126,295,53
262700120,-3112,-412,15436,145,92,393
262703503,-2156,-456,14448,-226,334,4
262706886,-3300,-404,15504,-63,233,201
262710356,-1996,-504,14296,-133,274,163
262713913,-3072,-292,15120,-185,298,-9
262717383,-2308,-492,14648,102,232,294
262720853,-2708,-476,15064,-65,233,117
262724347,-2572,-472,14800,65,191,226
262727706,-2768,-396,14888,-50,275,185
262731176,-2612,-492,14912,-38,186,159
262734646,-2612,-408,14936,-189,353,76
262738116,-3072,-384,15196,12,117,321
262741499,-2452,-612,14892,-151,352,18
262744969,-3028,-408,15436,-15,154,283
262748487,-2408,-512,14780,-51,208,128
262751948,-2816,-496,15192,-17,253,227
262755379,-2608,-432,14760,-50,205,145
262758849,-2764,-564,14988,63,236,211
262762233,-2520,-524,14916,-113,325,67
262765703,-2928,-392,14912,0,168,293
262768999,-2384,-536,14820,-105,370,71
262772494,-2736,-348,14900,-87,110,249
262775939,-2668,-540,14912,-55,254,148
262779409,-2612,-592,15188,-59,192,200
262782879,-2712,-508,14940,39,195,225
262786262,-2768,-552,15220,-26,361,101
262789732,-2764,-332,14820,51,110,302
262793116,-2472,-444,14768,14,364,96
262796416,-2568,-488,14988,-32,117,244
262799907,-2740,-340,14712,-112,260,153
262803439,-2712,-512,15036,-29,195,193
262806909,-2584,-428,14892,-80,142,210
262810379,-2792,-384,14820,-110,316,171
262813936,-2604,-472,15036,-82,172,141
262817406,-2800,-456,14976,17,238,238
262820789,-2616,-472,14880,-11,176,210
262824283,-2924,-432,15100,9,179,164
262827555,-2544,-468,14856,-24,294,183
262831025,-2856,-368,15012,-53,219,153
262834495,-2428,-540,14952,41,178,327
262837879,-2656,-412,14948,-158,249,100
262841435,-2708,-588,15040,21,122,333
262844819,-2652,-416,14812,-145,329,98
262848336,-2828,-360,15176,4,163,254
262851589,-2576,-412,15020,-8,276,255
262855003,-2876,-436,14980,-44,256,119
262858438,-2776,-484,15024,100,212,298
262861908,-2316,-496,14452,-173,379,-34
262865465,-2996,-272,15224,118,113,406
262868935,-2052,-616,14484,-206,484,-62
262872516,-3288,-352,15420,1,66,306
262875702,-2124,-500,14584,-177,375,65
262879172,-3068,-544,15360,-17,148,235
262882642,-2332,-488,14760,42,174,333
262886025,-2968,-340,15060,-96,304,121
262889495,-2460,-584,14996,129,143,353
262892965,-2956,-512,14964,-62,343,103
262896438,-2796,-524,14948,86,62,347
262899756,-2404,-404,14632,-188,420,0
262903115,-2980,-272,15308,-59,121,224
262906585,-2396,-476,14704,-13,243,235
262910055,-2932,-548,15272,-103,249,229
262913611,-2544,-432,14844,-79,171,170
262917081,-3056,-360,15316,-11,351,173
262920551,-2440,-516,14964,61,98,291
262923872,-2896,-384,14976,-20,364,81
262927231,-2772,-432,14992,0,165,216
262930528,-2520,-404,14736,-114,351,43
262933998,-2832,-468,14984,-6,155,379
262937381,-2452,-532,14704,-90,214,128
262940851,-2848,-424,15084,20,225,272
262944234,-2436,-644,14760,-126,227,91
262947752,-2904,-520,15180,22,126,321
262951087,-2524,-520,14924,-60,283,133
262954561,-2848,-452,15172,18,138,246
262957975,-2816,-424,14976,22,284,195
262961324,-2512,-676,15036,6,229,123
262964620,-2692,-428,15076,46,174,256
262968004,-2652,-428,14904,-136,336,73
262971477,-2712,-516,15196,37,133,257
262974881,-2632,-376,14760,-87,291,177
262978327,-2800,-496,15300,-103,190,176
262981884,-2544,-420,14772,-18,221,209
262985354,-2876,-608,15192,-92,211,143
262988824,-2432,-468,14864,-23,196,167
262992294,-3104,-404,15232,46,310,213
262995677,-2412,-444,14532,-79,265,79
262999085,-2928,-476,15200,5,292,191
263002357,-2588,-388,14732,14,73,323
263005653,-2988,-372,15192,-152,295,60
263009123,-2576,-480,14812,-36,131,316
263012593,-2888,-360,15108,-147,263,69
263016063,-2848,-552,15020,88,126,449
263019446,-2396,-556,14620,-193,382,-82
263023028,-2988,-456,15236,161,99,402
263026386,-2352,-464,14808,-107,353,56
263029856,-2956,-436,14984,19,170,201
263033240,-2464,-392,14800,-80,310,143
263036710,-2848,-356,15220,-71,131,254
263040180,-2600,-412,14960,-18,276,205
263043650,-2728,-344,15060,-71,208,168
263047221,-2688,-392,15020,-48,229,194
263050590,-2672,-520,14996,-115,302,166
263054146,-2944,-336,15132,46,158,209
263057533,-2528,-424,14860,37,303,148
263060952,-2876,-420,15168,-30,220,134
263064383,-2752,-312,14972,8,191,229
263067679,-2868,-448,15044,-114,304,106
263071240,-2716,-572,14908,16,129,255
263074644,-2788,-412,14892,-132,338,94
263078089,-2676,-404,15032,-47,61,282
263081473,-2804,-504,15064,-46,255,172
263084943,-2752,-556,15020,-52,279,181
263088413,-2756,-400,14924,9,142,231
263091709,-2684,-376,14820,59,344,158
263095092,-2708,-580,15124,20,175,195
263098500,-2532,-448,15084,-81,322,71
263101859,-2880,-396,15224,-39,121,290
263105329,-2464,-424,14688,-154,240,132
263108886,-3000,-436,15192,-31,287,215
263112356,-2320,-412,14612,-146,230,89
263115826,-3044,-344,15104,-22,259,204
263119296,-2452,-608,14896,-63,290,99
263122703,-2924,-504,15196,-41,274,94
263126062,-2932,-496,15068,66,198,319
263129445,-2508,-400,14704,-20,231,153
263132915,-2680,-404,14928,-22,311,156
263136385,-2656,-348,14748,-146,259,93
263139855,-2852,-544,15148,-12,219,198
263143325,-2528,-500,14804,-93,222,210
263146843,-2740,-520,14880,-95,232,132
263150265,-2488,-652,15048,1,281,216
263153562,-2804,-460,15016,-19,166,199
263157032,-2456,-600,14804,-23,332,82
263160415,-3172,-360,15168,2,185,265
263163747,-2272,-532,14572,-6,245,155
263167095,-2908,-460,15124,-24,251,259
263170565,-2512,-564,14904,-68,187,151
263174059,-2860,-452,15164,38,167,273
263177418,-2504,-488,14876,-129,295,34
263180888,-2992,-300,15024,-48,218,205
263184358,-2488,-332,14572,-128,267,166
263187915,-2936,-424,15168,-48,222,94
263191298,-2532,-600,14904,111,207,315
263194768,-2608,-496,14944,-62,319,33
263198176,-2436,-652,14784,37,203,272
263201535,-2636,-368,14864,-133,340,-16
263205091,-2976,-440,15116,4,100,308
263208388,-2560,-460,14800,-141,304,164
263211945,-2856,-268,15032,-64,161,222
263215415,-2612,-436,14980,6,242,197
263218711,-2540,-552,14932,-74,207,158
263222206,-2756,-392,14880,77,167,232
263225564,-2668,-548,15064,-50,296,131
263229034,-2652,-396,14964,30,143,274
263232418,-2776,-452,14972,-30,327,178
263235888,-2580,-480,14672,-113,204,134
263239444,-3020,-444,15208,-51,267,169
263242914,-2356,-472,14840,-134,300,98
263246388,-2784,-364,15008,-94,197,188
263249901,-2788,-444,15032,23,238,222
263253238,-2676,-472,14936,-135,218,92
263256708,-2684,-560,15188,64,218,302
263260091,-2736,-448,14968,-78,293,94
263263478,-2788,-532,15080,134,108,318
263266979,-2968,-452,15108,-141,390,57
263270414,-2540,-364,14880,38,83,332
263273735,-2736,-456,14944,-80,338,95
263277094,-2596,-512,14840,94,15,394
263280390,-2580,-484,14932,-139,392,32
263283860,-2760,-500,15160,-12,160,250
263287330,-2640,-448,14752,-103,222,137
263290887,-2844,-552,15380,44,258,232
263294270,-2624,-612,14996,52,143,213
263297678,-2436,-468,14648,-82,379,22
263301037,-3152,-320,15264,23,86,349
263304333,-2116,-664,14388,-60,331,104
263307803,-3148,-332,15348,-42,143,303
263311273,-2360,-540,14680,44,168,243
263314657,-2708,-436,15000,-100,316,143
263318213,-2472,-512,14784,4,140,243
263321513,-2660,-348,14944,-98,295,165
263325004,-2452,-564,14772,-2,135,232
263328363,-2904,-324,15072,-10,346,112
263331833,-2740,-400,14860,-18,237,180
263335303,-2668,-348,15052,14,210,216
263338686,-2496,-460,14788,-133,363,108
263342243,-2908,-376,15356,-41,115,248
263345713,-2492,-420,14832,-56,271,190
263349230,-2900,-548,15296,-55,228,115
263352653,-2480,-536,14988,-46,232,152
263356123,-2760,-440,15056,-77,301,149
263359593,-2380,-628,14892,-22,205,90
263362976,-2968,-332,15072,42,254,289
263366360,-2472,-520,14740,12,197,139
263369778,-2892,-532,15188,22,247,199
263373151,-2544,-512,14496,-94,216,151
263376596,-2908,-388,15096,-15,146,242
263380066,-2460,-504,14812,-93,215,256
263383536,-2880,-312,15176,-88,143,185
263387006,-2588,-412,14752,81,214,327
263390389,-2612,-548,14996,-99,275,54
263393773,-2860,-408,14956,184,49,443
263397180,-2248,-448,14548,-147,375,17
263400626,-3120,-356,15368,74,83,302
263403922,-2204,-552,14540,-91,413,64
263407306,-3128,-276,15160,-71,160,185
263410776,-2332,-592,14648,-59,317,138
263414246,-2904,-336,15188,-162,228,117
263417802,-2520,-472,14656,-38,158,245
263421276,-2588,-424,14908,-132,314,80
263424767,-2520,-336,14608,-11,87,283
263428126,-2696,-556,14984,-77,410,46
263431509,-2924,-452,15164,98,120,320
263434892,-2640,-380,14588,-44,343,60
263438275,-2704,-516,15108,-72,258,137
263441745,-2676,-472,14960,-40,157,250
263445215,-2748,-348,14892,-50,274,182
263448733,-2784,-464,15036,-102,206,169
263452242,-2692,-416,14840,-35,258,208
263455712,-2568,-472,14760,-129,279,94
263459182,-3012,-340,15192,-22,228,175
263462652,-2268,-484,14572,50,343,179
263466035,-2960,-436,15196,-73,227,99
263469422,-2704,-464,14904,54,151,314
263472845,-2648,-352,14796,-276,427,-72
263476359,-3068,-460,15420,103,77,373
263479742,-2416,-412,14672,-154,341,113
263483299,-2996,-444,15144,6,118,310
263486595,-2220,-476,14700,-15,232,211
263490065,-2940,-448,14992,-167,271,44
263493535,-2336,-532,14800,93,140,326
263496943,-2744,-420,15088,-167,383,30
263500388,-2888,-344,14904,71,78,359
263503685,-2900,-340,15036,-284,588,-266
263507328,-3260,-376,15304,150,-33,527
263510798,-2532,-392,14728,-252,448,-141
263514442,-2684,-464,15012,63,130,411
263517825,-2444,-540,14940,-198,306,-14
263521385,-2676,-600,15020,25,184,332
263524790,-2664,-504,15004,-62,243,93
263528148,-2732,-508,15048,72,237,210
263531532,-2592,-464,15036,9,226,171
263534828,-2808,-316,14952,11,195,245
263538211,-2516,-456,14820,-111,400,5
263541595,-2832,-496,15076,-47,127,288
263545065,-2464,-604,14968,-13,299,160
263548595,-2736,-432,14780,-88,87,286
263551918,-2552,-512,14948,-41,308,139
263555388,-2660,-360,15128,-51,195,231
263558858,-2796,-496,14952,5,192,206
263562154,-2728,-536,15164,42,274,219
263565538,-2624,-412,14844,-76,313,14
263568921,-2968,-260,15148,108,223,344
263572418,-2308,-260,14576,-210,369,17
263575896,-3348,-308,15356,82,121,334
263579244,-2324,-552,14724,-158,452,-22
263582801,-3200,-384,15312,-78,114,263
263586271,-2252,-464,14732,-59,325,66
263589654,-3016,-432,15220,-70,189,202
263593124,-2496,-524,14816,-2,235,161
263596535,-2756,-492,15040,-95,287,167
263599977,-2824,-584,15268,53,137,297
263603361,-2432,-628,14764,-28,290,189
263606831,-2788,-412,14984,22,176,207
263610214,-2440,-504,14952,-139,313,73
263613684,-3052,-280,15252,-59,223,184
263617154,-2540,-320,14672,-102,226,93
263620624,-2860,-432,15268,-55,258,224
263624118,-2460,-536,14764,-69,154,200
263627564,-2752,-484,15096,20,298,206
263630947,-2704,-496,14756,-18,236,180
263634417,-2396,-532,14768,-25,268,159
263637887,-2956,-256,15084,32,191,318
263641270,-2264,-396,14488,-166,211,112
263644827,-3164,-348,15352,38,193,328
263648259,-2288,-432,14620,-17,105,277
263651680,-2808,-392,15112,-141,441,-19
263655237,-2608,-480,14832,49,112,340
263658620,-2656,-516,14880,-176,402,-88
263662177,-2576,-536,14952,78,250,284
263665560,-2896,-300,15012,-29,221,121
263669030,-2612,-564,14912,156,221,245
263672524,-2420,-448,14732,-198,297,21
263676005,-3024,-392,15120,17,86,328
263679267,-2392,-480,14912,-82,291,152
263682737,-2896,-432,15152,-50,111,198
263686207,-2664,-424,14712,-53,282,170
263689677,-2728,-360,15088,-88,214,158
263693147,-2536,-516,14836,50,237,222
263696555,-2816,-504,14996,-82,306,57
263699913,-2408,-432,14644,27,154,279
263703297,-2628,-472,14940,-51,390,58
263706680,-2648,-548,15168,-31,160,195
263710150,-2604,-484,14772,-140,364,79
263713620,-2852,-508,15220,40,174,263
263717003,-2640,-404,14844,-43,157,233
263720473,-2604,-492,14964,-95,239,122
263723968,-2852,-440,15044,-69,131,209
263727413,-2708,-464,15004,52,260,256
263730796,-2576,-496,14768,-129,306,62
263734266,-2836,-556,15248,153,161,292
263737736,-2432,-448,14600,-131,325,87
263741206,-3080,-356,15112,-41,224,164
263744676,-2424,-464,14688,-192,387,74
263748195,-3040,-408,15256,-16,59,309
263751530,-2268,-552,14628,-135,352,43
263755000,-3092,-492,15336,-11,87,284
263758383,-2292,-512,14620,2,269,154
263761679,-3188,-492,15608,105,145,343
263765149,-2028,-532,14508,17,195,196
263768533,-3040,-396,15076,48,267,239
263771939,-2512,-524,14768,16,136,211
263775299,-2672,-484,14740,-165,391,49
263778804,-2724,-288,14912,9,98,390
263781979,-2396,-540,14856,-140,280,93
263785449,-3084,-212,15300,42,160,360
263788832,-2268,-452,14644,-105,254,84
263792302,-2988,-472,15248,-78,319,132
263795772,-2408,-544,14656,-61,210,140
263799267,-3048,-484,15196,15,286,128
263802625,-2620,-512,14872,6,224,226
263805922,-2756,-544,15084,-23,260,113
263809392,-2632,-308,14752,-128,315,151
263812949,-2868,-488,15164,-81,147,210
263816419,-2784,-376,14864,-5,203,252
263819802,-2784,-380,14964,-214,308,-1
263823296,-2896,-548,15268,77,152,359
263826655,-2476,-436,14888,-143,364,16
263830125,-3112,-468,15152,85,129,305
263833508,-2512,-520,14840,2,300,194
263836805,-2836,-492,15088,-53,219,105
263840275,-2688,-436,15068,62,208,325
263843658,-2720,-360,14828,-207,325,17
263847177,-2948,-468,15224,29,151,311
263850511,-2368,-472,14584,-219,408,15
263853981,-2744,-552,15124,-17,85,307
263857365,-2592,-352,14716,-90,292,166
263860835,-2716,-524,15092,-6,156,222
263864218,-2468,-508,14964,-10,281,154
263867688,-2932,-316,15152,-20,176,268
263871161,-2624,-432,14704,17,212,163
263874564,-2812,-392,15060,-7,315,137
263877924,-2552,-444,14764,-112,201,163
263881516,-2764,-476,15012,11,200,258
263884864,-2644,-500,14840,-55,174,245
263888334,-2696,-576,14916,-113,236,145
263891891,-2808,-480,15076,4,178,268
263895188,-2652,-588,14896,-9,210,141
263898595,-2372,-624,14904,-5,262,220
263901954,-2948,-456,15196,-61,244,122
263905424,-2124,-424,14600,42,146,237
263908807,-2652,-348,14744,-255,474,-144
263912451,-2724,-448,14880,75,-15,411
263915834,-2420,-488,14684,-122,401,88
263919304,-2940,-492,15176,-9,109,292
263922712,-2460,-456,14684,-95,276,130
263926157,-2900,-356,15124,-20,232,233
263929627,-2468,-480,14852,48,154,262
263933011,-2696,-364,14948,-134,364,53
263936481,-2624,-476,14984,143,24,406
263939864,-2252,-488,14576,-145,428,12
263943334,-3100,-384,15356,57,112,371
263946766,-2216,-464,14368,-23,265,128
263950187,-2968,-484,15400,33,270,250
263953570,-2368,-468,14692,-10,98,281
263956954,-2760,-524,14896,-209,413,-21
263960510,-2436,-588,14884,3,166,287
263963807,-2780,-420,14960,-91,343,70
263967190,-2952,-536,15312,79,183,314
263970573,-2520,-400,14816,-49,281,52
263973980,-2868,-416,15040,56,221,293
263977340,-2576,-468,14684,-54,244,78
263980723,-2672,-448,15088,-117,283,158
263984315,-2772,-524,14852,-73,156,266
263987750,-2704,-528,14808,-34,200,201
263991220,-2684,-568,14968,-96,304,121
263994690,-2752,-392,14936,-54,157,225
263998184,-2848,-380,15232,18,233,181
264001543,-2592,-392,15016,36,168,250
264004926,-2652,-492,14884,11,229,173
264008310,-2472,-444,14864,-73,311,104
264011780,-2952,-384,15092,-73,214,192
264015250,-2704,-480,14860,-36,265,213
264018720,-2788,-396,14952,-94,159,146
264022214,-2744,-520,14868,-60,235,190
264025660,-2664,-560,14964,-78,236,176
264029130,-2636,-428,14852,-42,151,222
264032600,-2628,-440,14852,-68,334,131
264036070,-3124,-432,15344,98,94,296
264039366,-2456,-520,14692,81,196,305
264042749,-2564,-412,14828,-166,317,-3
264046223,-2544,-464,14856,10,117,254
264049705,-2772,-380,14964,-101,347,54
264053073,-2424,-480,14796,3,59,301
264056282,-2672,-404,14792,-230,443,-46
264059839,-3008,-544,15324,66,77,361
264063136,-2452,-704,14984,-106,339,76
264066606,-2952,-492,15304,-32,182,223
264070076,-2468,-436,14848,9,242,139
264073395,-2808,-388,15144,-40,298,148
264076842,-2544,-384,14628,-111,236,124
264080399,-3100,-432,15216,-40,251,193
264083872,-2472,-436,14664,-114,257,171
264087465,-2952,-408,15252,-158,272,105
264090987,-2336,-624,14700,3,251,255
264094279,-2724,-396,14868,-173,284,29
264097773,-2968,-404,15196,112,160,337
264101219,-2644,-444,14884,-105,263,45
264104689,-2908,-444,15312,166,72,395
264108072,-2568,-428,14832,-141,370,12
264111542,-2900,-464,15032,14,119,261
264114925,-2980,-324,15016,-156,427,45
264118395,-2656,-584,15076,53,21,366
264121716,-2376,-420,14628,-135,360,61
264125162,-2852,-380,15256,-39,156,257
264128632,-2564,-444,14832,-44,213,104
264132102,-2868,-432,15088,-37,299,182
264135572,-2516,-556,15000,36,148,234
264138955,-2836,-408,15032,11,243,220
264142338,-2476,-400,14820,-80,285,36
264145722,-2792,-456,15040,8,187,248
264149067,-2604,-456,14840,-63,242,139
264152488,-2816,-488,15248,-36,234,237
264155958,-2564,-504,14892,-54,271,217
264159428,-2788,-400,15096,-88,199,110
264162898,-2408,-516,14976,-50,262,182
264166368,-2960,-332,14992,-69,233,127
264169838,-2452,-404,14832,59,207,226
264173245,-2908,-244,15012,-46,275,138
264176691,-2412,-500,14772,-22,217,141
264180161,-2660,-360,14912,-22,273,237
264183631,-2676,-536,15076,-100,216,159
264187192,-2540,-476,15012,86,138,340
264190606,-2612,-352,14800,-177,318,107
264194128,-2812,-488,15128,11,130,257
264197536,-2408,-556,14708,-76,373,97
264200895,-2908,-272,15156,-3,123,210
264204278,-2656,-436,14956,76,230,257
264207661,-2584,-364,14768,-109,258,137
264211218,-2692,-504,14972,16,177,214
264214601,-2604,-376,14672,-177,343,88
264218071,-2904,-548,15288,-43,154,232
264221566,-2448,-380,14684,-52,276,161
264225011,-2860,-364,15104,-115,186,135
264228568,-2684,-452,14964,-29,148,228
264232038,-2896,-484,15148,-95,322,140
264235508,-2556,-628,14840,-13,162,212
264238978,-2836,-476,15184,-27,358,82
264242361,-2548,-472,14820,-39,225,168
264245831,-2928,-420,15108,-71,328,55
264249263,-2564,-480,15032,-41,183,260
264252684,-2808,-432,15160,-45,193,196
264256154,-2620,-552,14904,-50,283,162
264259624,-2744,-500,14960,-127,180,174
264263181,-2636,-344,14936,-8,213,260
264266564,-2840,-444,15012,-35,235,198
264270034,-2516,-588,14936,-26,213,208
264273528,-2876,-440,15100,66,235,297
264276888,-2348,-520,14772,-35,262,67
264280271,-2780,-520,15176,-27,294,187
264283741,-2832,-376,14824,-110,156,238
264287298,-2608,-448,14944,-69,243,129
264290803,-2644,-496,15060,7,150,308
264294064,-2572,-512,14908,-54,243,144
264297559,-2616,-464,14844,31,223,302
264300917,-2676,-532,14944,-138,261,38
264304387,-3032,-484,15408,118,140,315
264307857,-2388,-476,14660,-57,269,92
264311241,-2764,-380,14896,-35,202,163
264314711,-2672,-400,14852,-14,265,211
264318181,-2816,-328,14916,-112,159,192
264321762,-2664,-400,14724,48,248,258
264325121,-2556,-468,14804,-181,179,142
264328677,-2856,-356,14972,5,130,282
264331974,-2492,-452,15040,-71,274,130
264335444,-2652,-488,15052,40,131,249
264338827,-2688,-392,14976,-33,377,120
264342297,-2872,-456,15012,-3,128,229
264345680,-2692,-352,14936,-45,345,52
264349112,-2836,-456,15036,-2,200,292
264352447,-2680,-412,14908,-108,240,148
264356004,-2772,-564,14972,38,177,318
264359387,-2744,-396,14976,-198,329,-31
264362944,-2992,-520,15280,10,192,344
264366327,-2576,-428,14848,-116,233,132
264369884,-2976,-396,15184,37,189,280
264373290,-2672,-548,14956,-84,405,31
264376650,-2916,-564,15156,48,180,251
264380033,-2488,-568,14788,-89,363,60
264383417,-3168,-384,15172,-62,209,170
264386887,-2500,-548,14916,71,187,315
264390270,-2920,-464,15064,-168,250,149
264393862,-2568,-528,15004,11,140,277
264397234,-2524,-456,14948,-127,331,111
264400767,-2772,-480,15164,-10,144,223
264404237,-2776,-400,15052,24,335,168
264407620,-2584,-444,14928,26,135,249
264411003,-2672,-360,14688,34,193,203
264414386,-2764,-384,14932,-70,290,125
264417856,-2616,-544,14964,-110,284,92
264421330,-2736,-436,15124,27,191,347
264424734,-2572,-316,14804,-68,189,136
264428180,-3008,-416,15212,-5,234,200
264431563,-2584,-512,14784,-80,187,183
264435033,-2700,-532,15152,-4,202,165
264438416,-2632,-452,14848,-32,235,220
264441886,-2632,-472,14876,11,168,193
264445269,-2508,-436,14764,67,254,251
264448701,-2664,-544,14964,-122,242,55
264452123,-2704,-376,14812,-13,197,265
264455593,-2780,-400,14832,-136,228,161
264459149,-2556,-488,14856,-1,139,215
264462533,-2700,-436,14952,-166,350,105
264466089,-2616,-312,15048,-46,125,219
264469559,-2540,-372,14664,-88,342,112
264473053,-2976,-352,15224,87,111,359
264476413,-2124,-528,14528,28,226,179
264479796,-2968,-384,15096,-16,263,259
264483266,-2640,-404,14860,-106,261,84
264486736,-2672,-436,14944,-48,297,173
264490206,-2784,-476,14888,-44,172,220
264493679,-2568,-484,14800,-36,244,208
264497189,-2624,-436,14940,-129,306,163
264500703,-2840,-496,15008,-19,191,193
264504173,-2644,-344,14944,50,255,270
264507556,-2544,-512,14904,3,180,179
264510852,-2704,-360,14880,-9,254,222
264514236,-2664,-460,14776,-123,261,128
264517792,-2856,-400,14984,-18,115,242
264521266,-2540,-548,15016,-114,370,96
264524757,-3012,-444,15168,43,111,302
264528116,-2468,-460,14732,-99,321,148
264531586,-2880,-424,15148,-90,188,176
264535056,-2488,-436,14840,-29,222,193
264538526,-2784,-324,15024,-82,221,182
264541996,-2748,-444,15140,65,205,175
264545379,-2640,-436,15128,47,271,215
264548823,-2440,-588,14864,-108,250,85
264552232,-2748,-436,14964,-27,244,226
264555702,-2672,-440,14692,-137,233,215
264559259,-2892,-416,15228,-116,202,154
264562816,-2668,-400,14804,-38,272,231
264566286,-2868,-456,15144,-40,168,207
264569756,-2604,-444,14832,-2,251,154
264573163,-2916,-492,15288,-67,270,126
264576609,-2664,-460,14856,8,176,198
264579905,-2860,-372,14932,-33,332,163
264583375,-2564,-524,14860,-40,171,162
264586845,-2720,-384,14936,-15,278,185
264590315,-2744,-524,15200,-9,169,233
264593699,-2624,-464,14976,3,193,223
264597018,-2788,-376,15032,-134,344,90
264600500,-2748,-340,14876,-81,119,248
264603935,-2796,-488,14936,-56,311,133
264607405,-2724,-512,15084,101,71,316
264610788,-2724,-560,14952,-43,350,27
264614172,-2668,-364,14836,-28,287,162
264617642,-2880,-460,15092,92,149,255
264621028,-2584,-428,14840,-209,374,11
264624519,-2812,-464,15240,12,127,277
264627878,-2632,-520,14876,-155,319,87
264631348,-2880,-368,15064,-5,69,297
264634645,-2360,-668,14656,-84,274,45
264638028,-2900,-436,15208,6,188,273
264641324,-2456,-452,14804,19,237,160
264644708,-2724,-536,15080,48,243,274
264648139,-2372,-484,14528,-82,261,66
264651474,-3000,-368,15000,-16,234,238
264654944,-2496,-440,14780,-28,147,250
264658414,-2776,-428,15108,9,198,200
264661711,-2632,-392,14832,-62,254,207
264665181,-2784,-464,15052,-60,197,150
264668651,-2388,-424,14860,-56,285,215
264672145,-2708,-436,14932,-60,222,104
264675591,-2544,-444,14884,28,271,180
264678974,-2764,-452,15036,47,172,235
264682357,-2288,-532,14752,-77,332,13
264685740,-2948,-468,15148,-43,260,195
264689210,-2624,-436,15016,16,117,318
264692594,-2700,-388,15044,-118,339,131
264696154,-2708,-568,15076,-78,161,195
264699644,-2728,-444,15080,-2,254,209
264703039,-2596,-512,14860,-28,124,268
264706474,-2728,-480,15020,-6,281,136
264709857,-2696,-472,15020,10,196,245
264713240,-2636,-392,14748,-41,240,106
264716710,-2524,-588,15104,-33,265,230
264720180,-2744,-500,14972,-125,267,115
264723761,-2424,-612,15008,26,178,288
264727120,-2692,-432,14828,-106,236,92
264730590,-2944,-408,15124,-5,153,231
264733973,-2572,-548,14944,-75,263,173
264737443,-2708,-504,15148,-32,140,234
264740913,-2700,-436,14912,-27,320,141
264744383,-2896,-388,15156,-11,148,255
264747902,-2076,-540,14608,74,253,198
264751237,-2936,-396,15208,19,240,255
264754620,-2448,-628,14796,-163,315,15
264758090,-3208,-408,15432,23,150,371
264761473,-2444,-468,14664,-190,341,-83
264765030,-3064,-500,15444,-31,203,282
264768500,-2592,-456,14812,-157,259,134
264772081,-2900,-388,15156,-22,225,196
264775527,-2508,-544,14892,3,310,199
264778823,-2728,-440,14972,-6,178,187
264782206,-2576,-340,14808,-43,302,142
264785676,-2816,-344,14984,-77,196,189
264789146,-2520,-496,15096,-31,237,174
264792616,-2644,-512,15132,-16,255,233
264796090,-2656,-388,15020,-86,156,202
264799580,-2620,-484,14944,-46,315,153
264803065,-2776,-468,15068,-77,165,205
264806496,-2872,-372,14924,3,246,122
264809793,-2608,-580,15056,-65,226,201
264813263,-2764,-492,15004,118,94,307
264816646,-2316,-360,14512,-173,397,-1
264820116,-3152,-300,15308,10,126,267
264823524,-2496,-372,14576,-84,270,240
264826969,-2868,-492,15192,-76,166,162
264830439,-2472,-432,14840,-59,183,183
264833909,-2872,-468,14904,-83,291,114
264837379,-2504,-600,14844,1,169,244
264840676,-2908,-324,14944,-41,340,112
264844146,-2696,-544,15056,40,158,261
264847578,-2580,-432,14856,-63,343,79
264850912,-2832,-400,15080,-40,145,221
264854382,-2624,-544,14952,-54,251,129
264857852,-2668,-424,14988,-40,212,209
264861322,-2552,-464,14908,-70,200,154
264864792,-2736,-436,14928,-87,274,210
264868262,-2712,-532,14776,-77,159,179
264871757,-2644,-500,15032,23,204,242
264875116,-2768,-472,15084,-93,317,145
264878586,-2764,-468,14996,112,83,342
264881969,-2532,-432,14796,-57,328,95
264885352,-2720,-404,14936,-40,189,169
264888822,-2528,-492,14808,-87,343,76
264892205,-2704,-452,15096,-64,155,269
264895675,-2748,-564,14784,18,215,185
264899082,-2624,-512,14900,-113,352,113
264902619,-2900,-480,15060,-25,141,199
264906120,-2568,-460,14808,2,249,201
264909382,-2728,-424,15048,-52,193,200
264912852,-2664,-484,15040,64,228,181
264916235,-2664,-452,14892,-74,326,138
264919705,-2924,-372,15044,7,188,215
264923026,-2700,-476,14828,-41,304,123
264926472,-2672,-496,14952,-19,131,218
264929942,-2768,-400,14796,-76,232,170
264933412,-2840,-512,15184,-75,268,147
264936882,-2604,-484,14776,-76,201,176
264940352,-2676,-556,14912,-9,298,175
264943735,-2624,-420,14812,-34,173,186
264947254,-2872,-456,15244,124,286,278
264950675,-2280,-636,14696,22,131,237
264954058,-2716,-416,15104,-155,327,-7
264957528,-3092,-340,14960,50,78,426
264960825,-2084,-628,14608,-247,395,-103
264964468,-3112,-316,15388,63,120,423
264967851,-2196,-492,14628,-202,316,-14
264971412,-2992,-420,15232,12,233,228
264974816,-2532,-528,14712,10,244,222
264978175,-2676,-504,15036,-61,286,64
264981558,-2900,-412,15076,52,138,347
264984941,-2480,-428,14656,-167,292,-10
264988498,-3124,-496,15288,60,204,323
264991881,-2648,-548,14828,-172,367,4
264995264,-3056,-448,15320,50,131,337
264998671,-2332,-424,14672,-101,342,86
265002118,-2980,-388,15240,-123,205,151
265005678,-2636,-504,14872,-10,255,229
265009179,-2912,-424,15012,-146,245,84
265012614,-2616,-452,15096,64,167,269
265015998,-2520,-384,14740,-104,321,78
265019468,-2732,-384,15068,-25,263,136
265022962,-2448,-592,14992,-17,290,213
265026408,-2836,-356,14948,-26,136,209
265029878,-2800,-352,14956,-80,300,183
265033348,-2756,-536,15088,-90,183,155
265036818,-2480,-504,14976,-88,211,186
265040288,-2868,-484,15052,-101,284,137
265043844,-2560,-532,14860,11,147,216
265047330,-2792,-424,15072,47,295,212
265050611,-2632,-428,14636,-42,208,162
265054081,-2872,-308,14852,-182,416,-39
265057638,-2736,-544,15124,3,191,312
265060934,-2688,-460,15004,-171,285,42
265064404,-3004,-308,15296,24,182,314
265067787,-2464,-432,14580,-137,245,60
265071261,-2928,-388,15228,-19,218,289
265074752,-2704,-436,15048,-128,304,60
265078197,-2736,-500,15236,122,117,333
265081667,-2724,-396,14916,-120,365,71
265085137,-2900,-472,15152,31,170,204
265088521,-2600,-492,14880,36,282,176
265091904,-2864,-400,14928,-154,266,89
265095374,-2568,-532,15040,32,186,243
265098780,-2928,-408,15132,-192,299,93
265102227,-2652,-388,14952,35,69,345
265105524,-2540,-492,14740,-120,380,103
265109084,-2744,-412,15044,108,26,313
265112503,-2600,-504,14976,-46,338,107
265115934,-2888,-448,15208,36,164,219
265119317,-2440,-508,14800,-78,277,91
265122725,-2876,-256,15020,-50,232,199
265126170,-2500,-708,14944,-45,186,163
265129640,-2748,-496,14852,13,272,246
265133023,-2532,-576,14852,-103,231,110
265136580,-2680,-436,15024,27,158,306
265139963,-2432,-420,14700,-117,220,119
265143520,-2832,-392,15228,63,141,240
265146952,-2460,-496,14868,-24,259,187
265150373,-2812,-456,15028,-1,218,165
265153757,-2308,-520,14680,50,277,246
265157140,-2664,-396,14796,-154,267,44
265160610,-2776,-292,15032,14,125,300
265163993,-2608,-512,14824,-124,266,136
265167550,-2720,-380,15056,-38,134,237
265171023,-2552,-460,14844,-51,313,170
265174514,-2764,-488,15100,45,154,221
265177873,-2620,-348,14956,-18,268,204
265181343,-2768,-428,15076,-61,275,160
265184813,-2848,-484,15044,22,144,250
265188196,-2416,-548,14724,-117,390,35
265191666,-2936,-392,15240,-43,154,213
265195136,-2412,-468,14908,-58,267,161
265198630,-2972,-480,15068,-54,189,182
265202076,-2368,-516,14848,-44,240,175
265205546,-2900,-472,15136,-59,268,235
265209016,-2400,-416,14872,-19,189,179
265212490,-3008,-488,15152,81,187,313
265215904,-2432,-632,14612,-52,238,110
265219340,-3028,-264,15088,43,122,293
265222747,-2288,-584,14568,0,317,111
265226019,-2908,-332,14888,-206,289,71
265229489,-2328,-476,14672,59,183,291
265232873,-2696,-296,15004,-272,293,6
265236256,-2904,-636,15304,71,110,304
265239639,-2696,-420,14956,-203,340,21
265243109,-3008,-548,15420,168,65,368
265246541,-2348,-460,14788,-104,389,76
265249962,-3120,-412,15240,6,169,183
265253259,-2388,-520,14668,-47,297,128
265256729,-2868,-424,15100,-51,155,193
265260199,-2524,-500,14764,-38,249,163
265263669,-2816,-496,15084,-85,256,168
265267139,-2828,-368,14936,-31,153,256
265270609,-2696,-408,15088,-112,392,53
265274103,-2880,-380,15300,13,74,290
265277375,-2512,-548,14620,-76,381,88
265280759,-3028,-652,15352,63,91,267
265284055,-2336,-492,14736,-69,312,37
265287438,-3064,-332,15064,28,167,267
265290822,-2392,-560,14696,-45,229,157
265294292,-2996,-412,15140,-68,274,255
265297785,-2432,-460,14784,-75,156,187
265301232,-3000,-380,15088,-4,165,292
265304615,-2268,-548,14728,-75,218,116
265308085,-2848,-240,15044,-69,184,216
265311555,-2648,-428,14996,76,227,245
265314938,-2536,-560,14760,-98,269,36
265318356,-2952,-352,15088,62,261,273
265321729,-2404,-624,14888,-7,191,158
265325088,-3044,-440,15128,-27,269,193
265328558,-2468,-500,14764,-75,157,225
265332028,-2712,-528,15200,-37,176,202
265335498,-2624,-476,15000,-93,194,248
265338968,-2616,-416,14780,-110,176,150
265342525,-2792,-396,15000,16,262,236
265345911,-2604,-464,14792,-83,279,89
265349339,-3008,-508,15196,90,191,250
265352674,-2296,-436,14704,-6,149,269
265356058,-2748,-368,15036,-82,256,117
265359528,-2836,-220,15084,-21,197,313
265362998,-2724,-336,14852,-115,232,93
265366468,-2824,-412,15020,-23,256,233
265369938,-2712,-436,14812,-131,236,133
265373519,-2632,-476,14828,47,198,262
265376878,-2728,-408,14996,-78,303,169
265380348,-2716,-372,14992,-10,138,233
265383818,-2524,-380,14800,-29,329,116
265387288,-2868,-444,15092,33,143,241
265390671,-2536,-352,14800,-49,233,93
265394054,-2956,-268,15088,-147,324,120
265397634,-2660,-484,15032,83,125,285
265400994,-2752,-480,15016,-123,324,159
265404551,-2756,-464,14900,4,130,248
265407847,-2700,-480,14840,-85,305,102
265411317,-2776,-508,15044,30,160,239
265414701,-2752,-548,15076,-24,212,142
265418174,-2760,-416,15024,-20,279,208
265421684,-2592,-464,14916,3,137,217
265424937,-2668,-336,14752,-68,326,154
265428407,-2788,-516,15052,-75,176,167
265431877,-2664,-524,14872,-72,193,192
265435347,-2796,-468,15088,-109,302,109
265438904,-2632,-504,14980,-25,154,215
265442374,-2692,-352,15048,-63,312,168
265445844,-2592,-516,14956,-26,168,181
265449362,-2696,-492,14900,-55,288,132
265452784,-2668,-460,14924,51,278,233
265456167,-2636,-500,14900,-98,214,143
265459637,-2648,-424,14840,-31,292,149
265463107,-2928,-284,14888,-146,192,147
265466664,-2724,-540,15072,87,176,261
265470047,-2704,-456,15044,-181,320,91
265473542,-2976,-440,15176,33,107,308
265476900,-2640,-416,15036,-83,334,122
265480370,-2804,-412,15052,1,90,305
265483580,-2520,-492,14972,3,311,103
265486877,-2828,-368,14972,4,155,255
265490173,-2476,-460,14696,42,213,219
265493556,-2628,-572,15092,-27,272,158
265497051,-2516,-488,14768,-3,99,301
265500323,-2504,-412,14956,-168,443,-39
265503880,-2448,-624,14864,-20,41,334
265507263,-2584,-344,14808,-192,424,-42
265510820,-2748,-616,14952,50,111,309
265514203,-2620,-356,14720,-20,263,138
265517673,-2668,-532,14932,71,194,298
265521060,-2456,-324,14512,-84,247,72
265524481,-2996,-396,15260,81,239,265
265527823,-2444,-296,14636,-135,266,50
265531293,-2892,-484,15200,-52,296,191
265534763,-2536,-464,14824,-25,209,205
265538233,-2660,-564,14972,-73,236,178
265541703,-2576,-436,14964,-82,259,195
265545173,-2840,-440,14960,-37,175,183
265548703,-2532,-532,14868,47,291,167
265552026,-2844,-480,15096,-64,184,182
265555496,-2652,-424,14836,48,189,229
265558879,-2668,-512,14928,-95,297,103
265562349,-2584,-556,14856,-46,166,176
265565819,-2772,-432,15064,-138,330,147
265569376,-2816,-548,15064,-78,193,176
265572870,-2608,-496,14948,-22,213,220
265576316,-2640,-492,14960,-60,255,199
265579786,-2716,-348,14908,4,162,175
265583082,-2672,-368,14864,-48,288,162
265586552,-2892,-400,15020,73,115,256
265589936,-2268,-552,14636,-121,426,6
265593319,-3164,-320,15180,37,34,340
265596640,-2448,-432,14536,-169,394,-64
265600172,-2952,-356,15448,-21,107,372
265603642,-2556,-392,14612,-99,190,136
265607112,-2848,-452,15212,-57,288,184
265610582,-2344,-524,14912,-84,164,166
265614052,-2848,-420,15048,-51,366,94
265617435,-2692,-416,15000,4,165,217
265620732,-2696,-456,14864,49,258,202
265624142,-2612,-528,14896,-134,325,-3
265627620,-2748,-580,15084,138,35,393
265630968,-2296,-348,14448,-181,413,-16
265634525,-2868,-512,15296,44,75,353
265637822,-2556,-432,14660,-56,304,139
265641292,-2828,-552,15272,-51,196,196
265644762,-2504,-568,14816,-30,208,188
265648280,-2824,-348,15068,-32,234,245
265651702,-2572,-560,14848,50,204,191
265655085,-2612,-332,14896,-7,325,178
265658468,-2484,-444,14804,5,162,223
265661765,-2616,-508,14880,-176,446,-39
265665321,-2976,-472,15072,115,18,495
265668705,-2092,-468,14408,-192,383,-48
265672286,-3424,-320,15544,95,53,464
265675558,-2076,-492,14644,-127,343,-28
265679115,-3160,-424,15408,101,119,369
265682585,-2196,-452,14612,-150,340,26
265686055,-3228,-440,15468,179,-18,460
265689529,-2176,-552,14544,-159,382,72
265692995,-3144,-404,15204,-26,92,283
265696406,-2156,-556,14572,-25,288,154
265699848,-2968,-452,15184,-199,256,46
265703318,-2632,-420,14836,141,47,435
265706701,-2252,-556,14852,-251,420,-87
265710258,-2864,-432,15160,137,10,421
265713641,-2452,-392,14656,-112,401,39
265717111,-2944,-392,15036,5,105,274
265720408,-2632,-536,14992,-16,312,145
265723901,-2724,-412,15108,-72,189,141
265727351,-2652,-484,15048,15,207,217
265730766,-2608,-364,14772,-36,198,263
265734201,-2916,-520,15328,-64,233,108
265737671,-2612,-328,14992,62,155,350
265741054,-2480,-468,14636,-218,311,49
265744524,-2980,-400,15024,36,168,231
265747956,-2492,-552,14952,-95,330,139
265751377,-2876,-440,15016,26,172,198
265754761,-2544,-528,14856,-15,262,147
265758231,-2880,-372,15008,-21,177,190
265761701,-2548,-452,14856,-57,340,161
265765171,-3032,-444,15044,-71,155,186
265768641,-2540,-444,14980,36,212,252
265772048,-2836,-440,15072,-80,220,216
265775494,-2480,-468,14952,-42,223,138
265778964,-3020,-504,15152,-3,247,259
265782347,-2552,-524,14952,-7,210,145
265785730,-2824,-396,15128,-34,285,205
265789200,-2380,-476,14776,-42,207,145
265792670,-2860,-408,14956,-65,257,122
265796144,-2588,-544,15116,-12,285,190
265799635,-2644,-504,14864,-196,276,49
265803080,-2912,-404,15396,68,168,312
265806464,-2388,-420,14652,-70,220,111
265809934,-2880,-624,15156,19,200,212
265813317,-2452,-520,14844,-10,198,220
265816787,-2744,-432,15072,-19,166,195
265820257,-2504,-484,14976,86,225,339
265823663,-2536,-344,14800,-47,246,84
265827023,-2656,-360,14932,68,209,274
265830410,-2652,-588,14908,-101,230,126
265833998,-2600,-488,15008,-63,193,166
265837433,-2728,-488,15012,-81,285,167
265840903,-2660,-436,14872,-62,177,140
265844373,-2756,-568,15108,-17,297,189
265847892,-2568,-572,14828,-85,264,170
265851313,-2772,-452,15220,-36,210,160
265854783,-2556,-452,14960,7,275,190
265858080,-3028,-336,15132,2,109,241
265861376,-2388,-512,14680,18,288,162
265864760,-2800,-476,15108,-74,224,182
265868230,-2472,-504,15020,-1,206,235
265871637,-2784,-532,14992,-35,298,173
265875083,-2644,-536,14956,-52,115,224
265878553,-2608,-364,14944,-98,319,136
265882023,-2860,-448,15120,-20,168,236
265885493,-2564,-444,14900,-8,235,232
265888876,-2920,-320,15060,-59,206,231
265892346,-2556,-412,14880,28,185,213
265895729,-2616,-456,14836,-111,379,105
265899311,-2868,-368,14964,16,114,251
265902669,-2468,-504,14980,-82,307,139
265906139,-2828,-460,15028,-68,171,208
265909609,-2460,-460,14736,-96,243,118
265913079,-2848,-508,15140,-83,247,197
265916549,-2632,-436,14940,-18,183,184
265920019,-2768,-472,15016,-3,280,197
265923426,-2636,-448,14984,-37,147,204
265926873,-2684,-436,14844,-21,250,166
265930343,-2740,-400,15032,-67,224,176
265933816,-2380,-596,14728,-50,163,200
265937318,-2764,-484,14896,-137,420,6
265940666,-2772,-508,15200,20,97,299
265943962,-2668,-552,15048,-85,310,74
265947395,-2920,-424,15180,40,99,320
265950642,-2484,-512,14820,-71,249,100
265954112,-2848,-544,15156,-10,256,178
265957582,-2512,-520,14988,21,180,162
265960965,-2704,-344,14916,-97,366,101
265964435,-2676,-556,15200,-27,195,157
265967905,-2708,-488,14996,-74,248,200
265971400,-2704,-380,15272,32,228,277
265974759,-2440,-492,14812,-76,251,112
265978229,-2832,-492,15236,-97,293,197
265981699,-2520,-428,14880,-63,157,195
265985169,-2780,-472,15084,15,305,196
265988552,-2732,-552,15068,-13,203,184
265992022,-2836,-464,14972,4,219,170
265995318,-2548,-472,14820,-15,325,155
265998813,-2792,-348,14956,-198,321,-17
266002345,-2956,-380,15152,88,112,427
266005728,-2620,-488,14920,-184,372,-48
266009285,-2952,-424,15148,13,103,342
266012668,-2668,-320,14852,-192,374,39
266016138,-3080,-452,15412,74,94,313
266019435,-2500,-476,14632,-99,347,128
266022928,-2720,-568,15100,-50,182,153
266026375,-2856,-368,15008,58,165,270
266029758,-2400,-580,14824,-126,319,53
266033228,-3072,-404,15212,67,69,343
266036525,-2192,-576,14708,-65,347,122
266040030,-3036,-344,15196,-78,191,181
266043465,-2372,-500,14636,-23,280,163
266047037,-2900,-336,14976,-168,255,50
266050405,-2884,-580,15116,120,118,284
266053875,-2696,-548,14812,-142,344,57
266057345,-2880,-432,15172,95,94,275
266060641,-2652,-440,14888,-96,409,67
266064024,-2784,-532,15232,47,109,256
266067408,-2788,-452,15076,-130,327,58
266070881,-2916,-400,15356,-6,99,353
266074199,-2392,-448,14616,-167,277,76
266077644,-2936,-452,15012,-71,319,178
266081114,-2452,-524,14896,38,139,235
266084497,-3104,-340,15216,13,330,132
266087881,-2528,-560,14748,93,61,373
266091177,-2652,-416,15076,-27,241,152
266094647,-2424,-496,14844,-78,237,188
266098142,-3068,-372,15204,-16,149,236
266101587,-2536,-504,14848,67,259,248
266104970,-2696,-512,15180,-120,196,147
266108527,-2668,-420,14928,32,177,264
266111910,-2544,-384,14812,-153,295,78
266115380,-2756,-524,15088,-39,92,271
266118764,-2756,-488,14904,-17,329,115
266122257,-2696,-500,14996,-47,173,198
266125704,-2704,-560,15020,123,300,239
266129174,-2536,-476,14792,-111,204,141
266132730,-2500,-472,14972,-68,264,204
266136200,-3008,-292,15188,-41,246,258
266139674,-2500,-420,14812,-44,193,155
266143179,-2688,-384,15136,-50,249,209
266146659,-2680,-500,14928,-20,162,218
266150080,-2624,-588,15064,-3,248,106
266153464,-2764,-428,14932,24,177,267
266156847,-2428,-544,14780,-78,333,22
266160230,-2844,-336,14996,87,192,401
266163613,-2440,-432,14820,-86,237,75
266166997,-3068,-364,15340,101,146,329
266170467,-2092,-568,14416,-42,191,220
266173961,-3040,-320,15248,-64,140,193
266177407,-2212,-560,14616,-29,246,241
266180877,-2992,-372,15036,-82,166,158
266184347,-2476,-448,14716,39,232,274
266187730,-2616,-392,14788,-133,243,62
266191200,-2732,-580,14980,80,199,283
266194583,-2516,-448,14820,-69,323,-3
266197991,-2908,-332,15392,74,53,371
266201263,-2208,-432,14376,-73,365,71
266204646,-2972,-292,15408,-189,200,123
266208203,-2332,-308,14440,4,188,291
266211499,-2828,-404,15204,-207,338,-19
266215056,-2536,-432,14680,57,84,336
266218353,-2684,-472,14792,-168,419,-5
266221846,-3028,-372,15100,71,64,343
266225119,-2552,-444,15036,-56,436,-30
266228589,-3132,-316,15116,126,-8,420
266231972,-2220,-484,14600,-145,381,-39
266235529,-3064,-384,15096,-87,140,291
266238999,-2528,-352,14836,-174,246,80
266242469,-2840,-404,15176,-128,298,147
266246064,-2424,-496,14892,-78,151,170
266249544,-2896,-404,15168,-37,323,136
266252966,-2620,-532,14992,35,224,242
266256349,-2672,-444,14856,-38,294,81
266259732,-2896,-476,15184,89,197,365
266263116,-2500,-400,14612,-99,241,52
266266499,-2804,-488,15144,-44,304,193
266269969,-2684,-420,15032,-66,222,131
266273463,-2572,-608,15080,9,236,246
266276735,-2764,-448,14964,-96,235,185
266280205,-2736,-440,15012,-66,206,150
266283675,-2748,-412,15004,-28,271,246
266287145,-2616,-476,15072,-47,210,169
266290615,-2796,-512,15120,103,221,242
266294085,-2648,-500,14912,-107,249,120
266297667,-2952,-380,15096,74,108,311
266301025,-2428,-524,14648,-184,395,12
266304495,-3132,-388,15144,-39,134,289
266307965,-2492,-596,14912,-80,382,80
266311349,-2940,-484,15188,-94,124,228
266314819,-2392,-476,14700,-39,258,149
266318289,-2932,-456,15024,-157,283,103
266321869,-2524,-524,14728,57,110,288
266325229,-3032,-416,15272,-45,340,99
266328612,-2668,-556,15072,9,153,208
266331908,-2756,-284,14888,-104,406,55
266335378,-2500,-404,15012,-66,142,221
266338848,-2996,-476,15284,-72,205,203
266342318,-2472,-536,14820,-10,166,289
266345792,-3008,-488,15036,-106,185,101
266349412,-2672,-448,15008,43,217,316
266352728,-2916,-364,15144,-106,227,115
266356285,-2668,-436,14940,92,188,269
266359668,-2620,-400,14900,-78,286,114
266363138,-2684,-528,15104,46,178,220
266366522,-2572,-388,14680,-71,334,153
266369992,-2656,-392,14808,-151,221,108
266373573,-2692,-516,14900,-6,199,257
266376932,-2500,-412,14852,-109,142,239
266380488,-2804,-488,15116,-15,182,198
266383958,-2292,-392,14664,-35,222,262
266387428,-2856,-420,15032,-7,158,178
266390812,-2336,-524,14648,60,256,239
266394195,-2908,-304,15056,-130,290,13
266397689,-2500,-488,14852,125,139,271
266401135,-2612,-416,14728,-201,356,1
266404518,-3044,-288,15208,8,48,347
266407728,-2632,-472,14796,-151,428,34
266411198,-3180,-304,15172,48,21,373
266414494,-2080,-632,14564,-75,425,-53
266417964,-3160,-408,15380,-37,143,289
266421459,-2184,-540,14540,-127,317,18
266424904,-3168,-312,15296,-42,297,199
266428374,-2424,-564,14760,13,203,154
266431758,-2648,-340,15124,24,243,244
266435141,-2652,-404,14828,-30,214,119
266438611,-2664,-500,14912,6,185,253
266441907,-2768,-400,14728,-99,225,198
266445377,-2632,-508,15020,-69,163,181
266448898,-2636,-420,14756,-130,309,135
266452437,-2812,-388,14984,-17,158,221
266455874,-2516,-472,14752,6,294,171
266459171,-2744,-344,14980,-22,214,163
266462641,-2932,-396,14972,-3,249,93
266465937,-2440,-484,14844,-69,265,181
266469407,-2920,-356,14992,-21,103,279
266472902,-2520,-480,14724,-17,270,206
266476347,-2948,-268,14924,-66,137,258
266479817,-2496,-468,14944,-87,295,109
266483287,-2936,-412,15056,-29,197,264
266486757,-2592,-376,14904,-76,244,115
266490227,-2820,-340,15076,4,243,259
266493524,-2500,-488,14816,-20,217,118
266497018,-2828,-456,15192,26,259,237
266500377,-2496,-432,14532,-178,305,40
266503847,-3044,-528,15208,35,244,212
266507230,-2464,-460,14848,-75,254,179
266510700,-2952,-368,14972,-60,168,252
266514170,-2540,-552,14856,-40,316,124
266517640,-2796,-364,15016,-100,189,206
266521200,-2736,-464,14900,-14,245,193
266524691,-2736,-388,15072,-28,209,194
266528137,-2784,-376,14780,18,169,230
266531520,-2700,-344,14876,-1,256,207
266534903,-2380,-544,14752,-99,281,82
266538287,-2924,-444,14976,-19,186,283
266541757,-2416,-576,15072,-123,226,90
266545227,-2972,-424,15144,41,138,294
266548669,-2324,-524,14820,-75,265,93
266551996,-2824,-384,15048,-46,159,211
266555498,-2604,-548,15036,23,274,209
266558846,-2568,-424,14876,-114,241,69
266562316,-3016,-368,15360,130,170,350
266565786,-2288,-496,14528,-61,202,144
266569256,-3048,-400,15096,-29,185,249
266572751,-2472,-528,14816,-97,291,151
266576196,-2916,-432,15236,21,84,300
266579493,-2344,-536,14840,-46,301,185
266582963,-2992,-344,15132,-70,106,291
266586433,-2300,-488,14576,-56,335,83
266589816,-3140,-344,15268,-86,235,108
266593286,-2300,-584,14624,84,176,210
266596694,-2992,-464,15200,-41,349,110
266600139,-2156,-492,14500,-69,192,172
266603609,-3172,-260,15172,-116,398,75
266607079,-2680,-344,15008,-41,107,306
266610549,-2748,-388,14840,-177,402,-36
266614106,-2792,-508,15136,78,98,429
266617403,-2256,-456,14468,-181,320,-11
266620963,-3328,-396,15596,161,160,384
266624454,-2060,-572,14560,-32,222,107
266627899,-3108,-380,15216,54,198,266
266631283,-2316,-664,14712,96,110,304
266634666,-2732,-428,14984,-192,417,-41
266638223,-2676,-516,14936,115,121,377
266641693,-2392,-440,14788,-229,321,-11
266645249,-2792,-584,15184,51,219,278
266648680,-2492,-488,14692,-131,183,102
266652189,-2848,-424,15236,43,156,295
266655608,-2428,-452,14812,-52,257,170
266659043,-2856,-448,14968,-26,198,188
266662513,-2616,-368,14768,40,283,204
266665896,-2680,-512,15076,-26,228,125
266669366,-2816,-444,14996,-10,230,226
266672860,-2664,-260,14588,-121,303,147
266676393,-2520,-576,15036,33,171,249
266679776,-2728,-448,15056,-38,266,189
266683246,-2544,-516,15084,-90,208,142
266686716,-2856,-492,14872,-35,228,194
266690186,-2812,-464,14976,-3,221,137
266693569,-2696,-492,15016,31,243,207
266696977,-2764,-544,15032,12,193,289
266700336,-2128,-472,14448,-138,304,9
266703719,-3356,-424,15392,93,156,402
266707102,-2200,-552,14480,-196,316,-21
266710659,-3240,-360,15452,87,98,394
266713955,-2252,-432,14472,-165,210,128
266717512,-3164,-384,15368,-63,294,120
266720986,-2380,-500,14616,11,270,213
266724390,-2836,-596,15076,-60,245,63
266727749,-2560,-596,14988,109,246,268
266731219,-2780,-416,14880,-54,216,88
266734602,-2760,-400,14808,24,211,204
266737985,-2492,-472,14892,-153,255,119
266741542,-2920,-364,15104,-40,219,172
266745012,-2524,-492,14984,-73,273,220
266748529,-2748,-416,14972,-90,193,131
266751952,-2596,-512,14920,-23,269,228
266755425,-2784,-496,15088,-59,262,63
266758840,-2524,-360,14820,75,176,270
266762188,-2748,-508,15068,-91,359,65
266765572,-2728,-372,15060,22,131,238
266768955,-2836,-312,14984,-125,377,97
266772449,-2512,-572,14928,10,119,244
266775808,-2940,-372,14844,-96,256,194
266779278,-2656,-524,15064,-1,161,227
266782661,-2564,-480,14920,-81,173,154
266786131,-2672,-376,14968,-107,287,177
266789688,-2644,-472,14840,-53,259,73
266793071,-2968,-368,15148,108,167,361
266796566,-2144,-616,14716,-86,354,44
266799925,-3032,-460,15272,68,117,279
266803308,-2308,-472,14624,-106,313,112
266806865,-3032,-352,15256,14,83,300
266810161,-2312,-516,14308,-14,282,215
266813631,-3280,-284,15316,-65,173,198
266817101,-2252,-548,14760,8,205,270
266820398,-2968,-420,15104,-92,289,157
266823892,-2444,-568,14904,82,89,341
266827164,-2548,-336,14664,-137,392,25
266830634,-2868,-456,15176,97,101,319
266834017,-2392,-632,14680,-60,358,67
266837401,-3132,-316,15232,11,138,303
266840784,-2256,-496,14460,-71,270,100
266844254,-2980,-312,15264,-180,315,92
266847771,-2264,-420,14708,56,77,352
266851020,-2692,-420,14884,-184,371,79
266854490,-2820,-320,15252,21,115,323
266857874,-2452,-444,14652,-49,322,62
266861292,-3060,-488,15216,12,210,256
266864640,-2236,-452,14520,108,149,264
266868110,-2832,-364,15136,-142,376,90
266871605,-2292,-476,14532,25,138,211
266874963,-2708,-348,14896,-150,416,67
266878433,-2808,-448,15068,-47,147,255
266881903,-2552,-412,14756,-67,289,136
266885373,-2888,-468,15148,-2,285,189
266888757,-2492,-400,14732,-96,190,203
266892227,-3088,-368,15392,88,199,357
266895610,-2352,-536,14632,9,179,201
266898931,-2768,-544,15080,-70,387,40
266902290,-2856,-480,15124,67,113,295
266905673,-2636,-460,14904,-167,359,-39
266909230,-3140,-412,15088,39,210,364
266912613,-2420,-448,14752,-142,292,36
266916083,-2948,-456,15232,-13,195,312
266919553,-2584,-460,14732,-201,223,92
266923047,-2764,-496,15144,21,242,208
266926406,-2480,-484,14912,-48,292,136
266929876,-2936,-516,15072,9,194,190
266933173,-2624,-528,14888,40,308,197
266936556,-2716,-384,15068,-83,231,111
266940026,-2716,-328,14960,77,186,309
266943409,-2628,-296,14964,-122,303,87
266946927,-2856,-508,15232,58,101,354
266950262,-2520,-552,14800,-146,376,52
266953732,-2588,-568,15004,2,104,293
266957029,-2600,-388,14768,-87,339,117
266960499,-2824,-536,15112,-16,156,237
266964004,-2636,-416,14724,-6,318,141
266967352,-2784,-456,15108,99,167,289
266970735,-2468,-320,14648,-136,344,15
266974230,-3112,-456,15316,85,232,269
266977589,-2576,-416,14780,-112,185,162
266981145,-2864,-532,15284,118,115,362
266984615,-2200,-576,14456,-164,288,77
266988085,-3208,-404,15316,-12,130,273
266991555,-2224,-572,14656,-30,251,224
266995025,-2840,-260,15016,-77,180,184
266998520,-2412,-472,14668,119,213,316
267001965,-2544,-400,14772,-133,297,31
267005435,-2776,-388,14948,28,164,285
267008819,-2492,-436,14720,-106,272,65
267012289,-3020,-484,15260,-3,100,321
267015672,-2408,-584,14700,-65,253,192
267019142,-2956,-480,15016,-24,170,203
267022636,-2424,-372,14896,-25,287,221
267026082,-2756,-528,15040,-24,235,178
267029552,-2376,-540,14700,-16,224,176
267033022,-3052,-400,15496,85,201,301
267036405,-2188,-544,14512,-11,169,167
267039875,-3120,-276,15272,66,178,297
267043258,-2204,-368,14376,-75,224,116
267046829,-3032,-476,15232,-103,315,165
267050285,-2320,-492,14604,-78,218,228
267053755,-2972,-508,15168,-127,234,72
267057225,-2568,-552,14916,6,228,268
267060522,-2680,-436,14964,-150,202,86
267064034,-2820,-476,15052,79,196,240
267067375,-2652,-372,15100,-56,264,120
267070848,-2752,-476,15088,36,165,229
267074253,-2652,-480,15116,-190,463,-49
267077785,-2960,-292,15068,-10,71,354
267081168,-2492,-616,14900,-215,442,-26
267084725,-3272,-348,15416,45,14,402
267088021,-2148,-500,14588,-150,367,-44
267091578,-3256,-432,15452,-9,171,289
267094961,-2280,-644,14628,-58,258,89
267098369,-2988,-384,15308,-72,363,111
267101815,-2748,-440,14920,55,114,270
267105198,-2428,-580,14780,-69,351,58
267108581,-2992,-436,15272,-68,198,173
267112051,-2660,-220,14760,-83,215,135
267115521,-2692,-580,15184,-72,274,177
267118991,-2532,-404,14848,-2,82,273
267122312,-2556,-432,15024,-108,364,85
267125758,-2836,-448,14936,-82,226,208
267129228,-2648,-516,14864,-9,202,193
267132611,-2704,-536,15084,-80,290,160
267136081,-2416,-464,14784,-27,210,134
267139551,-3052,-344,15088,3,314,150
267142847,-2324,-600,14752,-33,271,144
267146364,-2888,-392,14980,-112,236,176
267149874,-2540,-340,14816,-26,249,251
267153344,-2584,-460,14896,-185,273,37
267156814,-2988,-452,15236,71,181,368
267160197,-2492,-488,14760,-133,249,62
267163671,-2968,-372,15228,89,159,287
267167085,-2472,-508,14896,-11,245,147
267170521,-2680,-312,14848,-43,311,87
267173928,-2720,-360,14980,12,190,291
267177287,-2472,-492,14760,-83,215,166
267180757,-2956,-484,15128,-22,258,241
267184227,-2676,-468,14888,8,77,258
267187437,-2524,-440,15012,-54,288,193
267190907,-2672,-596,15020,-56,177,158
267194377,-2788,-476,14964,-17,244,163
267197871,-2544,-424,14700,-59,304,143
267201317,-2956,-484,15276,24,222,201
267204700,-2688,-476,14760,-8,252,234
267208083,-2844,-524,15188,-141,335,-20
267211640,-2892,-436,15180,100,84,399
267215023,-2652,-368,14812,-332,461,-137
267218667,-3180,-472,15408,136,-15,438
267222161,-2240,-656,14636,-235,483,-77
267225694,-2904,-364,15292,37,24,401
267228990,-2324,-492,14616,29,278,164
267232373,-2804,-492,15092,-123,237,140
267235930,-2948,-320,15088,88,126,300
267239313,-2432,-496,14732,54,181,304
267242697,-3016,-516,15160,-170,237,41
267246170,-2532,-432,14780,29,215,270
267249597,-2668,-468,14920,-215,297,34
267253020,-2900,-424,15044,65,132,335
267256403,-2500,-416,14712,-98,362,84
267259786,-2916,-440,15132,-33,115,248
267263256,-2612,-592,14964,31,304,192
267266643,-2648,-580,15104,-27,198,160
267270145,-2724,-312,14780,0,272,199
267273431,-2668,-400,14928,-48,284,191
267276876,-2472,-512,14880,-90,239,103
267280346,-2952,-344,14952,-22,248,303
267283816,-2520,-524,14932,-16,177,167
267287286,-2836,-352,14932,-67,197,234
267290761,-2564,-484,14832,-10,147,224
267294226,-2516,-552,14892,-120,287,114
267297807,-2904,-448,15248,34,210,245
267301166,-2284,-612,14764,-29,217,131
267304636,-2928,-464,15292,66,262,270
267308019,-2544,-412,14816,12,153,215
267311403,-2696,-328,14860,-74,248,116
267314873,-2900,-496,15244,-46,204,223
267318343,-2656,-360,15004,-45,159,246
267321837,-2600,-404,14876,-79,317,113
267325283,-2848,-464,15216,-14,88,275
267328666,-2732,-528,14816,-102,355,77
267332136,-2812,-544,15140,-46,145,153
267335606,-2456,-460,14600,-5,232,195
267338989,-2824,-400,14952,-102,330,57
267342459,-2400,-540,14812,-12,90,280
267345846,-2696,-384,14628,-155,452,-11
267349446,-2724,-468,15084,86,28,430
267352696,-2456,-544,14712,-95,398,13
267356079,-2976,-436,15156,-67,73,279
267359462,-2392,-524,14612,-103,279,83
267362932,-2864,-500,15216,-100,193,204
267366489,-2424,-424,14820,-90,220,103
267369962,-3120,-264,15156,20,297,213
267373385,-2412,-484,14700,-9,261,136
267376725,-2748,-516,14956,-42,290,139
267380195,-2860,-344,14928,22,183,292
267383579,-2452,-528,14768,-91,200,133
267387049,-2904,-440,14936,-47,264,213
267390519,-2604,-568,14804,-51,167,205
267393989,-2732,-336,14980,-42,313,127
267397483,-2344,-600,14732,14,212,186
267400842,-2964,-368,15004,-79,319,44
267404225,-2592,-520,14952,54,234,279
267407608,-2668,-480,14876,-27,203,186
267411078,-2748,-388,15016,-23,262,183
267414548,-2404,-448,14716,-61,180,205
267418018,-2868,-496,15028,-81,242,182
267421513,-2488,-468,14852,23,139,291
267424872,-2572,-408,14876,-167,336,24
267428342,-2764,-440,14972,63,146,350
267431725,-2432,-532,14680,-86,292,4
267435021,-2996,-220,15096,105,182,339
267438491,-2268,-468,14632,-23,216,94
267441875,-3008,-388,15076,-83,394,62
267445258,-2504,-380,14696,-51,264,172
267448776,-2856,-384,14844,-31,136,279
267452198,-2824,-464,15084,-41,370,80
267455581,-2672,-480,15132,-25,60,310
267458964,-2536,-472,14872,-90,288,124
267462434,-2680,-444,15068,-56,198,218
267465904,-2652,-492,15088,-36,221,143
267469374,-2616,-512,14932,54,258,266
267472781,-2696,-440,14852,21,171,191
267476176,-2568,-452,14972,37,290,162
267479524,-2748,-404,14940,-113,214,158
267483081,-2708,-396,14948,-40,175,159
267486551,-2632,-488,15072,-83,251,174
267490021,-2644,-396,14760,-137,226,115
267493578,-2800,-452,15184,-8,228,248
267496985,-2444,-480,14916,-55,226,152
267500431,-2696,-452,14972,-28,201,207
267503901,-2616,-592,14964,-59,362,91
267507284,-2852,-520,15208,74,103,249
267510667,-2460,-432,14632,-123,373,89
267514137,-2968,-280,15228,3,129,278
267517434,-2228,-564,14768,-33,256,255
267520907,-2868,-272,14964,-153,215,192
267524485,-2544,-484,15024,-13,190,199
267527931,-2756,-404,14896,-48,244,181
267531401,-2764,-392,15128,-47,193,199
267534871,-2488,-480,14892,-59,325,144
267538341,-2948,-432,15328,10,185,161
267541724,-2508,-512,14740,7,216,154
267545020,-2968,-360,14984,-70,291,127
267548551,-2496,-464,14844,-18,166,240
267551960,-2872,-436,15156,-19,261,209
267555430,-2392,-448,14964,-5,119,257
267558814,-2792,-436,15036,-65,231,149
267562284,-2440,-452,14864,-8,162,302
267565667,-2828,-432,15096,-56,190,163
267569137,-2372,-496,14820,17,266,251
267572543,-2788,-412,15100,-33,261,64
267575907,-2556,-576,14760,120,223,317
267579410,-2592,-432,14828,-186,290,18
267582843,-2928,-320,15036,-37,154,259
267586313,-2732,-476,15100,-128,314,117
267589870,-2480,-504,14768,-40,149,228
267593340,-2676,-364,14952,-89,344,126
267596835,-2924,-408,15012,-15,114,296
267600280,-2544,-548,14792,-1,295,140
267603663,-2756,-448,15068,-34,283,211
267607133,-2640,-568,14892,-4,214,134
267610517,-2620,-348,14880,-116,302,117
267614073,-2764,-404,15000,32,187,191
267617457,-2684,-380,14952,-33,249,221
267620930,-2580,-336,14860,-48,260,134
267624421,-2840,-412,15128,-46,193,231
267627867,-2548,-484,14972,-38,338,124
267631337,-2784,-532,15144,-47,97,251
267634720,-2572,-472,14796,-23,260,89
267638103,-2736,-496,15028,4,133,298
267641400,-2500,-444,14744,-85,363,-14
267644870,-2796,-452,15104,83,193,369
267648301,-2412,-416,14648,-100,302,63
267651723,-2712,-544,15104,63,138,386
267655106,-2520,-448,14676,-201,278,14
267658576,-3008,-300,15168,55,72,409
267661873,-2364,-448,14540,-137,318,132
267665429,-2796,-508,15256,17,137,209
267668813,-2616,-508,14756,43,285,226
267672219,-2676,-476,15100,-36,194,142
267675666,-2556,-336,14672,20,277,199
267679053,-2728,-476,14940,-88,226,151
267682554,-2648,-412,14948,-93,233,131
267685989,-2552,-380,14904,-5,211,263
267689372,-2684,-484,14936,-119,181,139
267692929,-2548,-544,15076,5,241,260
267696229,-2564,-392,14880,-142,235,93
267699720,-2808,-336,15104,65,171,319
267703079,-2568,-500,14812,-43,252,151
267706549,-2920,-580,15260,120,118,282
267710019,-2444,-468,14960,-52,304,127
267713489,-2736,-300,14932,-106,196,116
267717046,-2500,-464,14808,-31,281,171
267720516,-2784,-412,14928,-120,196,183
267724097,-2656,-472,14784,127,145,362
267727542,-2736,-432,14956,-199,380,-24
267731099,-2856,-368,15196,80,20,412
267734396,-2488,-492,14984,-134,406,34
267737866,-2836,-620,15056,126,57,338
267741249,-2496,-480,14916,-56,390,82
267744632,-2676,-576,15004,66,143,262
267748064,-2488,-468,14580,-54,349,8
267751312,-3028,-400,15124,17,181,315
267754695,-2404,-508,14688,-117,293,74
267758165,-3004,-444,15240,-10,181,315
267761635,-2476,-472,14804,-145,311,65
267765105,-2948,-504,15340,33,159,304
267768488,-2588,-512,14772,-107,341,73
267771982,-2880,-456,15360,72,142,276
267775342,-2476,-452,14760,-110,397,40
267778812,-2928,-348,15056,72,57,324
267782112,-2256,-576,14548,-51,392,43
267785526,-3000,-428,15204,-82,126,294
267788961,-2448,-520,14840,-4,202,214
267792345,-2848,-412,15012,-132,295,171
267795905,-2572,-524,15104,-45,149,231
267799396,-2640,-420,14936,-33,271,169
267802841,-2848,-384,15192,-1,153,210
267806225,-2684,-496,14856,80,174,223
267809608,-2600,-484,15004,-22,299,168
267813078,-2736,-524,14808,-38,218,176
267816548,-2588,-552,14828,-71,309,191
267820018,-2800,-416,15112,-144,189,138
267823599,-2784,-364,14924,-59,231,192
267827045,-2612,-484,14964,-92,170,231
267830515,-2960,-344,15036,-33,167,186
267833985,-2456,-508,14748,-48,298,205
267837455,-3212,-304,15236,-72,164,180
267840925,-2316,-588,14820,123,185,336
267844395,-3092,-276,15136,-48,273,103
267847913,-2556,-488,14884,164,56,439
267851248,-2480,-428,14748,-156,398,28
267854718,-2456,-564,14928,-22,100,296
267858188,-2808,-332,14860,-92,294,107
267861658,-2524,-560,14952,-49,69,348
267865041,-2600,-400,14880,-53,196,147
267868511,-2624,-472,15156,30,188,264
267871918,-2552,-404,14884,-30,208,189
267875364,-2848,-464,15004,83,264,172
267878748,-2464,-512,14780,-15,170,182
267882218,-3032,-404,15260,-83,289,102
267885723,-2500,-532,14628,-50,135,251
267889158,-2756,-416,15028,-132,216,92
267892628,-2444,-656,14968,33,163,356
267896014,-2768,-292,14684,-105,191,118
267899592,-2800,-412,14840,75,231,299
267902951,-2452,-528,14804,-135,317,25
267906421,-2684,-500,15324,128,83,417
267909804,-2460,-452,14628,-132,354,2
267913187,-2624,-564,15152,126,66,327
267916571,-2460,-352,14664,-217,435,-22
267920127,-2784,-392,15096,28,62,326
267923448,-2436,-616,14960,-45,348,98
267926807,-2992,-300,14976,-144,130,230
267930364,-2628,-420,14776,-82,259,145
267933834,-2956,-348,14976,-49,219,240
267937304,-2520,-548,14868,2,235,155
267940600,-2888,-556,15256,13,293,162
267943984,-2624,-564,14952,9,174,144
267947329,-2676,-484,14976,-64,332,76
267950663,-2820,-312,14856,-6,115,261
267954047,-2820,-372,14880,-128,289,152
267957603,-2680,-484,15004,7,104,372
267960900,-2616,-436,14780,-135,238,110
267964457,-2636,-600,15088,23,166,330
267967840,-2520,-472,14676,-161,254,11
267971333,-2916,-540,15112,57,222,266
267974693,-2564,-372,14900,29,210,191
267978076,-2660,-508,15076,1,248,90
267981286,-2960,-248,14840,-77,202,262
267984756,-2488,-604,14948,-52,236,106
267988261,-2860,-444,15116,-71,216,272
267991696,-2524,-460,14884,-77,207,140
267995166,-3096,-428,15200,29,213,268
267998574,-2456,-596,14776,-42,178,178
268002019,-2916,-372,15124,9,160,224
268005316,-2440,-556,14800,-34,244,176
268008786,-2820,-440,14948,4,135,246
268012082,-2512,-512,14876,-10,310,205
268015552,-2812,-296,14892,16,174,211
268018936,-2672,-332,14808,-120,339,116
268022517,-2900,-396,15316,-2,100,292
268025876,-2284,-488,14576,-128,264,88
268029346,-2960,-396,15036,-86,229,216
268032816,-2524,-528,14784,-96,239,128
268036286,-3040,-508,15304,-94,329,135
268039756,-2508,-372,14800,-17,209,158
268043226,-2896,-480,15312,-34,350,72
268046711,-2552,-564,14768,-3,287,173
268049992,-2588,-380,14840,3,180,173
268053289,-2636,-404,14916,-160,390,105
268056845,-2840,-372,14932,-33,106,256
268060315,-2512,-492,14908,-39,292,173
268063785,-2720,-376,14972,-85,215,196
268067255,-2608,-628,14964,-85,247,88
268070639,-2972,-324,15140,78,230,320
268074045,-2460,-524,15004,16,192,139
268077405,-2868,-408,14980,82,244,280
268080788,-2512,-456,14720,-43,241,145
268084258,-2720,-500,14896,-52,248,124
268087728,-2776,-376,15040,-119,303,150
268091324,-2692,-480,15084,0,146,264
268094582,-2736,-408,14804,-69,232,203
268098076,-2648,-440,14892,-64,217,124
268101522,-2720,-452,14872,-18,174,223
268104992,-2712,-524,15136,-65,296,81
268108375,-2776,-536,14992,50,124,299
268111758,-2736,-400,15052,-57,388,70
268115141,-2856,-384,14892,86,82,278
268118438,-2484,-436,14692,-129,360,85
268121932,-3156,-408,15300,-38,162,227
268125378,-2520,-504,14936,109,144,350
268128848,-2744,-452,15076,-176,318,78
268132318,-2840,-452,15160,-10,115,283
268135788,-2604,-456,14864,-92,393,47
268139171,-2944,-444,15060,-4,112,228
268142554,-2492,-512,14860,-27,291,150
268146028,-2904,-476,15032,4,188,201
268149369,-2468,-524,14756,21,206,178
268152704,-2880,-424,15140,-125,342,119
268156261,-2692,-512,14836,-44,127,257
268159731,-2780,-444,14876,19,241,220
268163114,-2480,-532,14768,-96,183,140
268166584,-2936,-400,15104,-30,178,238
268170054,-2636,-484,14872,-37,170,238
268173547,-2552,-532,14804,-89,263,86
268176907,-2764,-448,15028,64,233,275
268180291,-2432,-328,14520,-128,272,39
268183761,-2924,-340,15300,85,277,231
