Time,Accel_X,Accel_Y,Accel_Z,Gyro_X,Gyro_Y,Gyro_Z
196850066,-3496,120,15220,-154,337,-72
196853601,-2168,816,15876,-184,191,-410
196857093,-2856,1404,15948,-212,308,-99
196860649,-2592,992,15772,-231,350,-269
196864206,-3208,716,15532,111,-32,149
196867589,-4336,440,16488,85,114,337
196870886,-3716,-1708,16600,-162,46,-296
196874529,-2748,1140,14876,-39,83,-64
196877937,-2736,848,16524,-82,-202,-256
196881469,-3024,724,16000,-147,34,-127
196884939,-3780,1284,15212,-55,151,211
196888409,-3224,-1264,16932,2,143,-28
196891797,-3720,704,16216,-211,414,-36
196895263,-2596,588,15536,-284,261,-349
196898819,-2824,1208,15528,-30,107,-182
196902401,-3380,2336,15768,-171,63,-86
196905846,-3660,-548,15668,66,-65,145
196909229,-4092,508,15708,-39,106,-29
196912613,-3112,-1096,16688,-176,-74,-339
196916343,-2384,1384,15232,-246,301,-235
196919986,-2832,1404,15864,-41,-77,-68
196923456,-2520,1456,15776,-144,208,-25
196927038,-3460,1552,15536,-26,277,195
196930483,-3724,-656,16240,4,81,85
196933606,-3544,312,16132,-114,330,-174
196937163,-2732,1512,16052,-282,45,-415
196940720,-2796,1292,15096,19,-2,57
196943929,-3628,1688,15192,101,-190,140
196947486,-3624,-568,16736,44,-40,70
196950783,-3208,192,15336,-296,347,-178
196954406,-2456,-452,16396,-181,31,-457
196957896,-2564,1676,16080,-193,340,-29
196961453,-2520,1876,15244,-105,115,-29
196965010,-3652,-452,16056,100,166,104
196968480,-4052,1492,16176,35,186,313
196971863,-3328,-1240,16736,-251,82,-421
196975506,-3432,680,15392,-146,165,-173
196979088,-3036,1420,16416,-116,-188,-319
196982793,-2616,1424,15444,-27,90,-30
196986177,-3656,988,14976,17,-44,160
196989473,-3524,-1356,16924,-40,249,-168
196993116,-3396,952,16040,-140,392,74
196996500,-2792,-372,15872,-285,310,-367
197000143,-2952,1252,15440,-109,254,-289
197003811,-3012,2424,15916,-56,-109,123
197007343,-3036,540,15228,106,-85,169
197010727,-4196,612,15508,57,-3,79
197013850,-2628,-356,16664,-137,-90,-333
197017493,-2608,704,15304,-314,317,-261
197021050,-3264,1860,15284,-123,-67,-315
197024694,-2724,1216,15664,-5,234,116
197028101,-2988,1824,15160,-57,176,167
197031547,-3992,-1364,16444,-44,255,-88
197035104,-4092,568,16252,-71,281,32
197038400,-2732,368,16324,-274,5,-362
197041783,-3072,716,15048,61,-53,125
197045080,-3216,1868,15636,83,-261,43
197048463,-3576,-1164,16944,-59,89,-53
197051937,-2736,464,15432,-186,189,-35
197055522,-2076,860,15908,-116,103,-334
197058960,-2608,1136,15708,-264,324,-145
197062603,-2796,2080,15312,-11,171,139
197066073,-3276,428,15608,43,118,138
197069370,-4040,828,16316,-25,208,83
197072666,-2884,-176,16500,-295,134,-364
197076310,-2848,1088,15260,-112,-42,-154
197079978,-2760,1020,16448,-2,-134,-186
197083510,-3100,552,15784,31,-53,92
197086720,-3640,340,15316,40,52,207
197089930,-3336,-1264,17160,-203,186,-345
197093660,-2848,1252,16048,-202,312,-34
197097217,-2456,596,15640,-292,393,-352
197100773,-3124,1120,15352,-77,40,-204
197104268,-3644,2292,15824,91,85,352
197107540,-3808,-1768,16544,-193,66,-302
197111183,-3996,404,15564,24,38,-5
197114306,-2656,644,16536,-125,-147,-300
197117950,-2148,1656,15212,-200,78,-199
197121507,-3688,1464,15096,-1,102,242
197124890,-3208,-424,16340,-35,182,0
197128211,-3880,1036,15832,-167,413,31
197131656,-2864,-176,15968,-181,332,-215
197135300,-2936,1220,15644,-112,142,-286
197138943,-2660,2156,15896,-134,15,-50
197142413,-3512,-672,15528,63,-29,79
197145710,-3616,1896,15060,115,-72,101
197149180,-3092,-1172,17080,-118,-132,-234
197153044,-3164,-168,15424,-261,359,-241
197156679,-2264,-192,16244,-227,135,-485
197160284,-2748,1488,15868,-140,214,19
197163754,-2620,1464,15444,-201,303,-146
197167397,-3572,36,16028,3,-10,22
197170434,-3880,-164,16448,91,181,281
197173817,-3196,-840,16604,-332,107,-462
197177485,-2848,1128,15252,-94,2,-92
197180757,-2968,1528,16388,-44,-127,-128
197184400,-3464,-352,16484,-24,-78,6
197187697,-3704,952,15080,-96,216,166
197191080,-2764,-648,16576,-175,54,-404
197194637,-3324,928,16080,-317,485,-186
197198194,-2620,1616,15608,-125,113,-87
197201754,-2996,972,15568,41,111,-43
197205071,-3812,2032,15888,16,95,247
197208343,-3612,-1692,16936,61,-30,35
197211727,-3632,432,15532,-176,137,-209
197215283,-3020,1260,16328,-133,-151,-375
197219014,-2364,1492,15356,-90,112,-84
197222484,-3228,1800,15468,-2,-86,121
197225867,-3688,-1152,16948,25,288,-53
197229361,-3488,948,16080,-135,304,79
197232720,-2944,-712,16236,-249,363,-314
197236363,-3000,1056,15500,-129,286,-212
197240007,-2880,2388,15792,-38,-71,50
197243390,-3820,-1056,15836,69,-32,135
197246860,-4064,988,15612,121,-135,111
197250330,-2732,-592,16724,-41,44,-51
197253761,-2792,380,15484,-312,265,-287
197257305,-3064,1784,15620,-145,10,-375
197260827,-2640,1312,15748,-88,172,50
197264210,-3780,1012,15732,-41,156,85
197267593,-3876,-1124,16424,-6,235,25
197270977,-3256,200,16036,-148,204,-237
197274534,-2900,-160,16600,-256,120,-446
197278202,-2940,1080,15032,-143,4,-151
197281647,-3216,1816,15840,111,-200,58
197285117,-3760,-1004,16844,7,-31,93
197288414,-3564,312,15008,-125,236,50
197291797,-2224,240,15972,-207,72,-431
197295267,-2812,1368,16156,-256,319,-145
197298910,-2708,1884,15132,-92,271,4
197302231,-3140,924,15468,43,0,80
197305243,-4064,916,16264,34,253,187
197308540,-3200,-600,16432,-286,60,-423
197312096,-3008,1204,15168,-119,8,-175
197315566,-3180,1772,15956,15,-164,-21
197319036,-3692,-924,16676,10,-115,79
197322419,-3584,628,15144,-138,283,94
197325803,-2340,-204,16288,-179,13,-415
197329384,-2928,1088,16084,-300,409,-196
197333003,-2704,1940,15372,-274,272,-305
197336647,-3104,904,15568,90,43,56
197339770,-3864,1376,16180,0,180,240
197343066,-3092,-944,16728,-65,2,-92
197346363,-3260,712,15416,-200,122,-220
197349919,-3096,1720,15964,-121,-161,-320
197353697,-2600,1448,15360,21,5,22
197356773,-3728,728,15068,-98,108,132
197360191,-3704,-1448,17092,-58,235,-187
197363799,-3108,1000,15884,-191,389,-25
197367356,-2596,-48,15880,-277,291,-314
197370913,-2796,1148,15420,-74,264,-274
197374470,-3032,2508,15796,-23,-78,170
197377964,-4012,-1448,16544,131,-37,191
197381496,-4272,436,15728,18,-17,62
197384706,-2704,-76,16816,-114,18,-230
197388176,-2388,984,15308,-273,205,-256
197391733,-3392,1732,15460,-40,-87,-194
197395289,-2768,864,15688,-41,206,121
197398673,-4060,544,16056,-1,131,186
197401994,-3868,-1392,16616,-101,323,-158
197405700,-3176,680,15936,-85,241,7
197408909,-2656,792,16168,-207,53,-337
197412379,-3156,656,15196,89,-128,187
197415763,-4240,600,15588,151,-201,156
197419233,-3400,-1240,17096,-167,2,-198
197422789,-2516,680,15264,-195,261,-83
197426259,-2192,956,15828,-121,39,-289
197429754,-2688,1016,15712,-234,215,-86
197433286,-2980,1736,15276,-52,269,102
197436756,-3988,-1372,16520,70,58,137
197440139,-4048,152,16664,-52,247,33
197443436,-2580,904,16316,-294,40,-366
197446906,-2780,1292,15044,-35,-90,-33
197450376,-3224,1996,15488,55,-163,36
197453806,-3260,408,16120,60,-115,158
197457142,-3720,-32,15624,-197,359,-33
197460647,-2272,876,15844,-255,164,-450
197464169,-2692,1384,15800,-193,344,-73
197467726,-2700,616,15620,-292,312,-310
197471282,-3080,1092,15480,113,11,194
197474666,-3656,2072,15804,104,130,393
197478160,-3708,-1740,16752,-230,121,-407
197481866,-3816,880,15572,-3,100,-39
197485163,-2844,404,16544,-84,-214,-275
197488719,-2076,1732,15276,-157,86,-177
197492276,-3700,1224,15112,-44,53,192
197495659,-3292,-340,16452,25,158,7
197498869,-3868,596,16088,-276,430,-38
197502364,-2408,960,15492,-273,282,-331
197505896,-2920,1148,15692,-27,180,-145
197509453,-3468,2472,15768,-174,-47,-105
197513096,-3604,-512,15780,123,37,139
197516479,-4176,308,15920,100,-90,127
197519863,-2996,-1072,16808,-174,-12,-326
197523593,-3196,140,15260,-291,351,-227
197527174,-2760,1512,15844,-12,-74,-17
197530620,-2544,1624,15848,-102,304,44
197534090,-3528,1368,15500,-26,216,141
197537560,-3892,-644,16152,82,173,110
197540943,-3724,388,16320,-132,185,-132
197544500,-3124,-872,16488,-275,141,-387
197548143,-2836,1232,14980,-9,-55,-14
197551530,-3092,1792,16120,52,-287,8
197554882,-3608,-656,16764,-3,69,62
197558033,-3272,-88,15200,-234,263,-182
197561624,-2324,-236,16276,-160,141,-469
197565233,-2568,1532,15896,-363,397,-190
197568876,-2652,1684,15176,-122,181,-72
197572433,-2804,1216,15480,4,110,26
197575643,-3880,1468,15996,41,130,255
197579051,-3452,-1148,16608,-305,162,-399
197582756,-3416,432,15668,-175,78,-210
197586226,-2820,1792,16136,-139,-97,-359
197589870,-2564,1308,15444,-48,-45,4
197593166,-3784,1008,15216,45,-76,158
197596550,-3652,-1288,17100,-67,286,-126
197600193,-3224,928,15916,-133,300,24
197603601,-2828,-288,15712,-283,397,-325
197607220,-2876,1216,15524,-159,185,-237
197610863,-2980,2432,15848,-28,1,80
197614073,-3984,-1364,16244,82,-56,224
197617543,-4268,656,15520,67,10,35
197620666,-2600,-228,16716,-148,-64,-337
197624310,-2352,720,15048,-313,263,-270
197627891,-3448,1880,15368,78,-16,190
197631250,-2712,1064,15968,-63,149,65
197634633,-3708,1184,15636,-14,337,149
197638103,-3148,-1020,16188,-25,166,12
197641573,-3112,412,16004,-162,257,-298
197645130,-2928,2512,15664,-271,109,-380
197648773,-3112,560,15284,109,-154,180
197652290,-3380,1860,15652,68,-121,42
197655626,-3572,-1168,17096,-67,-81,-82
197659183,-3532,64,15264,-153,277,7
197662428,-2260,636,16016,-113,-43,-366
197665950,-2536,1388,15760,-273,317,-103
197669593,-2692,1844,15400,-135,252,-19
197673150,-3000,1104,15268,94,-44,106
197676537,-4028,560,16564,-23,289,154
197679941,-2852,156,16288,-187,94,-289
197683386,-2896,1168,15184,-56,49,-109
197686856,-3208,1860,15844,-143,-144,-291
197690587,-3008,1076,15544,44,-15,108
197693970,-3672,216,15292,-3,65,234
197697180,-3276,-1336,17152,-138,174,-333
197700910,-2820,1208,15828,-195,443,-21
197704491,-2700,396,15636,-270,206,-309
197708023,-2736,1144,15688,-83,172,-227
197711580,-3400,2468,15616,24,-27,306
197714963,-3900,-1824,16672,126,-89,190
197718520,-4184,540,15708,14,86,5
197721556,-2640,180,16520,-102,-172,-280
197725200,-2364,1160,15340,-226,232,-218
197728868,-3704,1664,15424,-52,-106,-139
197732487,-2960,432,15992,5,236,66
197735610,-3968,500,16216,-145,333,64
197738993,-3784,-1448,16456,-157,278,-226
197742723,-2984,892,15588,-122,369,-87
197746193,-2604,1192,16316,-181,-58,-273
197749837,-3436,272,15452,-33,75,-74
197753180,-3528,1924,15344,119,-230,163
197756690,-3260,-1248,17088,52,53,98
197759987,-3548,164,15432,-211,255,-116
197763578,-2380,1016,15772,-56,11,-217
197767013,-2724,1528,15984,-238,310,-84
197770570,-3240,1832,15512,-164,125,-146
197774214,-3192,184,15848,94,156,154
197777535,-4052,504,16356,-74,263,43
197780807,-3600,-1672,16836,-187,163,-330
197784537,-2740,1356,14948,-139,79,-132
197788094,-2940,996,16376,25,-183,-144
197791564,-3212,336,16096,-122,109,-91
197795034,-3540,1244,14984,-23,68,232
197798417,-2904,-1136,16772,-221,233,-412
197802172,-3556,712,16008,-256,331,-88
197805617,-2680,1080,15620,-260,352,-338
197809261,-2680,1296,15520,-35,49,-125
197812730,-2892,2064,15992,-82,-81,-4
197816114,-3800,-840,16080,42,34,87
197819323,-3912,320,15652,-44,80,-108
197822707,-2768,-720,16564,-137,9,-335
197826177,-2316,1384,15396,-162,84,-149
197829758,-2900,1840,15792,6,-23,-3
197832943,-3348,-380,16272,-11,167,23
197836327,-3708,652,16020,-176,406,-47
197839796,-3540,-1248,16120,-253,351,-245
197843527,-2816,1092,15604,-153,231,-280
197847170,-2620,2444,15796,-106,26,-18
197850640,-3032,1028,15148,70,-147,115
197854157,-3716,1524,15492,111,-71,150
197857580,-3660,-952,16816,-38,33,0
197860790,-3072,188,15396,-249,314,-204
197864382,-2660,1464,15700,-196,88,-443
197867904,-2628,1472,15780,-152,205,-29
197871460,-3264,1816,15428,-145,297,-78
197875017,-3728,-252,16208,78,18,179
197878338,-3860,-152,16516,71,209,266
197881697,-3076,-692,16576,-332,69,-440
197885254,-2888,1112,15132,-105,48,-126
197888810,-3124,1344,16172,-31,-151,-88
197892367,-3556,-328,16360,-20,-91,6
197895664,-3688,824,14972,-87,186,142
197899047,-2432,-588,16372,-205,94,-460
197902628,-3500,868,15876,-229,434,-80
197906074,-2464,1424,15568,-227,197,-209
197909717,-2580,1704,15396,5,56,-56
197912927,-4188,1296,15884,36,128,330
197916310,-3404,-1236,16876,-44,34,-101
197919867,-3356,652,15312,-90,136,-81
197923250,-2904,1180,16456,-161,-137,-381
197927005,-2300,1748,15360,-66,83,-27
197930364,-3444,1512,15732,16,-72,114
197933747,-3436,-784,16740,-15,256,-64
197937217,-3540,576,16060,-44,339,129
197940600,-3096,-848,16176,-311,280,-333
197944243,-2728,1244,15604,-132,316,-214
197947887,-2888,2100,16112,-102,-77,-21
197951447,-2956,1092,15016,97,-81,121
197954875,-3920,1040,15424,110,-118,173
197958384,-3640,-1080,16920,-67,8,-102
197961854,-2764,580,15320,-284,353,-224
197965446,-2156,128,15900,-134,-35,-415
197968967,-2600,1600,15576,-302,398,-173
197972611,-2616,2012,15176,-68,123,69
197975994,-3952,-908,16276,81,22,68
197979228,-4196,1196,16080,-22,202,193
197982674,-3004,-812,16464,-261,94,-423
197986231,-3140,1020,15236,-79,124,-153
197989787,-3112,1580,16300,29,-284,-28
197993257,-2736,1068,15672,-1,-2,53
197996467,-3892,692,15332,-121,144,92
197999850,-2336,-324,16420,-60,129,-190
198003432,-3040,976,15920,-325,399,-184
198006964,-2580,1732,15348,-277,221,-339
198010607,-2880,1124,15616,35,123,20
198013904,-4008,1572,16324,-45,-42,154
198017374,-4040,-1612,16220,-5,93,3
198020584,-3336,576,15364,-173,61,-193
198024054,-2720,-40,16692,-110,-123,-323
198027722,-2520,1292,15392,-90,19,8
198030907,-3724,1096,14840,20,-78,157
198034290,-3644,-1160,17016,-13,279,-141
198037934,-3320,748,15852,-116,291,92
198041317,-2948,-408,15904,-254,346,-387
198044960,-3024,656,15984,-134,219,-233
198048517,-3108,2192,15908,-61,-14,70
198052001,-3060,908,15032,88,-3,164
198055110,-4148,596,15636,78,-38,124
198058407,-2576,-216,16744,-176,-21,-360
198062050,-2672,588,15044,-280,193,-236
198065646,-3216,1680,15508,-73,43,-345
198069077,-2668,1292,15732,-106,136,33
198072547,-3712,1244,15700,8,354,200
198075843,-4000,-1212,16444,-8,200,41
198079251,-3280,276,16052,-134,221,-269
198082783,-2900,2364,16036,-292,109,-362
198086427,-2904,816,15008,69,-139,97
198089723,-3712,1284,15188,66,-148,16
198093107,-3660,-1056,16836,-49,-51,-5
198096577,-2932,384,15340,-103,217,42
198099960,-2284,220,16084,-176,17,-434
198103454,-2576,1548,15736,-81,231,34
198106813,-2800,1812,15264,-109,205,59
198110283,-3908,-788,16316,29,114,68
198113580,-3724,208,16328,13,290,229
198116876,-2944,-676,16504,-299,24,-452
198120433,-2684,1160,14856,62,6,67
198123556,-3640,1604,15200,27,-287,-66
198127050,-3564,-696,16708,41,-11,78
198130322,-3068,268,15124,-320,277,-216
198133879,-2400,-272,16248,-121,38,-398
198137436,-2344,1536,15844,-368,474,-213
198141079,-2652,2128,15248,-73,88,15
198144376,-3752,-704,16340,88,100,48
198147672,-3964,1496,16048,6,96,248
198150882,-3316,-1160,16712,-228,155,-393
198154659,-3760,512,15420,-97,39,-66
198157909,-2924,948,16408,-14,-140,-187
198161466,-3516,372,16264,-98,-16,-25
198164849,-3756,268,15284,-21,136,185
198168267,-2240,60,16132,-320,168,-548
198171702,-3248,1152,15528,-196,285,-30
198175259,-2476,1384,15488,-244,329,-252
198178927,-2736,1472,15576,-10,24,-32
198182286,-3908,1468,16008,-25,-66,137
198185755,-3832,-1276,16028,-55,91,-50
198189226,-3680,500,15616,101,-97,92
198192522,-2504,-340,16552,-191,37,-360
198196079,-2344,1536,15076,-93,-22,-67
198199549,-3264,1892,15352,90,-17,141
198202957,-3712,-908,16924,-32,161,-48
198206402,-3488,836,15892,-48,284,134
198209785,-3208,-1068,16060,-258,309,-306
198213516,-3464,88,16276,-188,214,-315
198216986,-2956,2380,15916,-77,-23,61
198220369,-3884,-1104,15876,74,-150,116
198223925,-3924,1220,15576,113,8,126
198227247,-2760,-840,16728,-95,-4,-79
198230605,-2696,428,15056,-267,326,-284
198234162,-2944,1572,15612,-145,44,-398
198237719,-2484,1340,15740,-94,192,28
198241102,-3432,1540,15648,-117,265,-6
198244572,-3780,-712,16276,70,96,104
198247869,-3640,-92,16132,-174,359,-251
198251429,-2668,-16,16500,-321,19,-446
198254942,-2976,732,15072,115,-32,111
198258279,-3156,1816,15912,-9,-190,-54
198261749,-3572,-932,16844,30,-62,61
198265045,-3132,104,15316,-137,327,65
198268463,-2216,272,16108,-162,4,-420
198271812,-2596,1412,15876,-152,273,-22
198275368,-2692,1876,15340,-129,158,-31
198278949,-3816,-728,16308,101,-18,100
198282395,-4148,1084,16188,-14,232,212
198285865,-3020,-800,16672,-262,116,-446
198289508,-3024,780,15380,-142,98,-165
198292979,-3180,1656,16204,-156,-172,-308
198296709,-2604,1160,15620,15,31,85
198299919,-3832,616,15108,-6,-3,177
198303153,-3672,-1204,17308,-31,225,-182
198306772,-3048,832,15960,-314,379,-187
198310329,-2740,52,15740,-285,312,-362
198313799,-2752,1048,15460,6,89,8
198316835,-3852,1604,15868,-41,-70,153
198320305,-4032,-1596,16368,-11,127,-49
198323862,-3428,488,15580,35,-9,77
198327009,-3092,1520,16480,-117,-59,-338
198330628,-2384,1276,15496,-62,-52,5
198333925,-3884,1012,14860,47,-35,158
198337308,-3744,-1184,16908,-18,200,-122
198340951,-3216,692,15972,-119,288,87
198344335,-2924,-392,15776,-308,412,-391
198347978,-3200,676,15940,-115,116,-220
198351538,-2992,2292,15820,-57,65,60
198354878,-3856,-1168,16172,73,-101,125
198358388,-4096,720,15648,128,10,113
198361685,-2700,-452,16764,-133,68,-143
198365241,-2668,668,15252,-276,218,-283
198368833,-3224,1840,15600,-103,66,-328
198372355,-2664,1300,15716,-44,124,109
198375825,-3776,848,16040,-17,223,104
198379233,-3792,-1076,16428,-44,178,-18
198382765,-3312,340,16160,-7,263,103
198386061,-2700,288,16192,-298,52,-400
198389531,-2880,940,14804,111,-99,151
198392915,-3252,1968,15840,71,-169,74
198396298,-3556,-1128,16796,-64,-7,-82
198399768,-2960,440,15256,-121,281,19
198403176,-2164,552,16164,-166,-13,-405
198406708,-2548,1400,15704,-233,336,-114
198410351,-2720,1796,15360,-138,161,11
198413821,-2824,1488,15344,110,-30,161
198417291,-4352,236,16504,-45,307,134
198420675,-2764,284,16360,-228,67,-351
198424145,-2928,1136,15204,-8,84,-52
198427466,-3040,1804,15924,7,-238,-61
198430824,-2876,1148,15632,90,-72,136
198434208,-3668,356,15132,-146,202,50
198437591,-2384,160,16116,-78,123,-290
198441061,-2696,1100,15940,-325,388,-182
198444704,-2660,544,15764,-258,235,-360
198448261,-2980,892,15484,78,39,103
198451474,-4068,1072,16176,3,-26,230
198454815,-4008,-1944,16620,-101,165,-142
198458498,-3400,876,15396,41,-15,87
198461707,-2704,-512,16784,-112,-32,-378
198465351,-2392,2024,15100,-305,218,-381
198469029,-3788,1596,15232,118,-38,373
198472464,-3504,-1272,17316,-87,337,-36
198476021,-3652,1428,16016,-143,251,82
198479516,-3072,-824,15972,-50,312,-43
198482961,-2816,1040,15820,-190,167,-404
198486605,-2512,1840,15768,-135,-15,-135
198490253,-3488,-304,15288,40,-24,75
198493545,-3600,2044,15368,127,-229,116
198497101,-3288,-1444,17124,-163,64,-225
198500745,-3524,-44,15328,-258,253,-231
198504326,-2352,1284,15836,-159,147,-457
198507945,-2544,1476,15848,-226,273,-27
198511502,-2724,1492,15736,-120,158,-136
198515145,-3208,192,15952,71,60,152
198518355,-4208,216,16448,70,78,348
198521565,-3688,-1604,16752,-256,210,-384
198525295,-2620,1344,15060,-130,4,-161
198528790,-2988,1196,16492,-35,-161,-142
198532409,-2372,1632,15216,-114,-24,-49
198535965,-3836,1232,15000,-10,132,215
198539435,-3624,-1012,16784,-25,240,-53
198542992,-3424,700,16084,-265,327,-94
198546462,-3144,-820,16112,-281,401,-356
198550106,-2752,1272,15564,-176,224,-257
198553808,-2664,2060,15880,-48,-42,30
198557132,-3856,-888,15872,65,-40,90
198560429,-4044,1092,15472,153,-76,154
198563899,-2840,-784,16896,-196,7,-357
198567369,-2888,252,15092,-317,274,-270
198570961,-2916,1800,15680,56,-7,72
198574135,-3480,-696,16568,-143,155,72
198577630,-3596,1352,15720,-4,314,161
198580988,-3460,-1240,16312,-266,302,-326
198584719,-3676,312,16300,-102,229,-145
198588275,-2980,-564,16696,-299,165,-431
198591919,-2852,1292,15116,29,-92,64
198595216,-3160,1868,15920,107,-196,30
198598686,-3552,-1008,16924,-60,-15,-36
198602267,-3800,596,15148,-102,215,88
198605625,-2232,-156,16328,-194,76,-484
198609182,-2928,1220,15996,-269,335,-155
198612826,-2772,1780,15360,-164,228,-30
198616383,-2912,1088,15324,31,-1,38
198619592,-4008,1352,15996,23,227,257
198622976,-3068,-888,16520,-123,48,-161
198626536,-3324,676,15392,-70,72,-101
198629940,-3080,1452,16180,-195,-67,-371
198633559,-2484,1472,15356,-7,-48,30
198636856,-3708,740,15148,-21,74,192
198640152,-3736,-1200,17128,-43,167,-184
198643796,-2932,1008,15912,-327,419,-171
198647439,-2876,-272,15856,-297,286,-365
198651082,-3144,708,15956,-96,181,-216
198654600,-3004,2528,15880,-62,-41,100
198658023,-3156,624,15224,104,-94,154
198661406,-4024,1208,15504,71,-12,119
198664789,-2740,-744,16640,-34,-53,-39
198668259,-2596,536,15504,-337,370,-385
198671851,-3456,1760,15300,-76,-80,-208
198675373,-2860,404,16000,-31,218,59
198678694,-3764,1340,15752,-109,283,133
198682226,-4020,-1572,16596,11,149,-2
198685609,-3224,524,16180,-240,313,-321
198689166,-2700,452,16316,-280,-12,-379
198692723,-3008,836,15132,-53,57,-111
198696106,-3292,2004,15684,82,-269,53
198699489,-3540,-1164,17020,-60,77,-129
198703070,-3596,140,15076,-171,238,-32
198706516,-2180,464,15656,-124,7,-347
198709899,-2688,1380,16084,-268,407,-123
198713542,-2880,1920,15484,-94,160,85
198716926,-3004,864,15608,89,56,131
198720136,-4180,692,16184,-18,196,109
198723519,-2904,-100,16408,-258,126,-411
198727187,-2988,988,15252,-177,4,-190
198730546,-3184,2072,15860,109,-169,75
198734016,-3040,760,15688,13,-30,100
198737312,-3696,452,15096,-116,234,89
198740695,-2184,164,16020,-130,264,-300
198744252,-2920,1164,16088,-308,342,-170
198747895,-2544,420,15748,-247,367,-332
198751456,-2912,1012,15508,78,-59,103
198754883,-3324,2404,15764,29,59,266
198758132,-3924,-1832,16636,-96,39,-155
198761689,-3016,856,15160,14,34,-9
198764812,-2672,364,16576,-146,-129,-327
198768455,-2664,1124,15452,-226,119,-234
198772134,-3628,1684,15172,15,73,199
198775395,-3616,-1424,17152,-64,161,-194
198779063,-3872,836,16032,-149,426,46
198782422,-2904,-252,15860,-115,261,-119
198786065,-3100,640,15852,-165,208,-343
198789622,-3084,2804,15568,-242,35,-238
198793179,-3216,-184,15464,115,-63,108
198796649,-3164,2164,15368,53,-106,42
198800032,-3616,-1524,17040,-37,-98,-36
198803614,-3596,-848,15644,-273,398,-261
198807233,-2088,1960,15400,-31,-129,-121
198810876,-2764,1172,16028,-87,225,64
198814259,-2964,2064,15196,-156,296,30
198817729,-3224,460,15724,155,-45,232
198821113,-4344,180,16552,-105,395,-41
198824583,-3644,-1472,16716,-258,48,-347
198828251,-2836,1140,15148,-80,44,-90
198831609,-2896,752,16768,-77,-176,-245
198835166,-3076,560,15968,68,-20,115
198838463,-3640,48,15124,-45,154,237
198841759,-2996,-1052,16880,-160,118,-437
198845489,-3488,676,15952,-225,422,-62
198848959,-2532,956,15468,-255,228,-292
198852563,-2788,1276,15652,5,82,-186
198855813,-3432,2248,15820,8,28,306
198859022,-3740,-1568,16556,-113,123,-253
198862753,-4076,256,15980,-46,93,-14
198866049,-2584,664,16664,-87,-163,-298
198869606,-2196,1564,15160,-160,156,-153
198873284,-3544,1544,15160,-17,-82,-15
198876723,-3244,-88,16212,42,235,80
198879954,-3784,824,16000,-171,303,44
198883312,-2788,140,15708,-182,297,-219
198886869,-2908,1084,15968,-147,162,-327
198890512,-2420,2104,15892,-150,-72,-80
198894069,-3536,-564,15600,67,1,86
198897192,-4108,740,15660,83,-172,107
198900575,-3324,-1344,16972,-149,109,-305
198904330,-3232,40,15284,-253,252,-193
198907776,-2652,1352,15688,-21,7,-127
198911159,-3008,496,15992,-174,249,-10
198914629,-3236,1700,15384,-27,234,149
198918099,-3796,-1448,16512,62,163,138
198921569,-4064,296,16356,-57,187,-54
198924952,-2528,996,16216,-240,104,-272
198928534,-2812,1340,14836,-63,-66,-49
198931979,-3464,1912,15352,11,-202,-118
198935536,-3356,-60,16404,26,-34,104
198938832,-3560,224,15296,-153,290,-73
198942302,-2988,-1232,16880,-215,191,-412
198946033,-2596,1612,16020,-278,384,-112
198949676,-2528,1144,15504,-186,270,-187
198953368,-2756,1168,15680,-37,26,-133
198956789,-3612,2160,15696,51,154,312
198960173,-3728,-964,15924,22,38,66
198963383,-3996,264,15996,-26,84,-68
198966679,-2656,876,16620,-87,-137,-233
198970236,-2452,1588,15244,-125,16,-134
198973828,-3572,1584,15240,-18,25,26
198977114,-3428,-468,16568,15,152,39
198980386,-3804,684,16124,-217,469,-47
198983856,-2628,780,15588,-260,335,-301
198987412,-3020,1140,15740,-71,96,-189
198990882,-3584,2448,15624,-159,45,-112
198994439,-3740,-508,15496,83,-31,114
198997822,-4084,508,15896,156,-56,130
199001206,-3056,-1252,16876,-192,-46,-298
199004960,-2376,1244,15348,-248,317,-210
199008579,-2640,1328,15564,-58,-71,-110
199012136,-2536,1676,15848,-139,178,-15
199015693,-3492,1644,15416,-100,221,-14
199019250,-3604,-568,16088,54,49,109
199022546,-4012,440,16288,-58,341,-54
199025929,-3432,-1256,16816,-263,103,-402
199029684,-2756,1308,15180,-113,33,-169
199033216,-3040,1536,16424,-11,-188,-89
199036773,-3608,-256,16452,-37,-38,29
199040156,-3684,920,15256,-69,168,157
199043540,-2608,-792,16404,-231,136,-438
199047183,-3176,928,15928,-239,370,-138
199050740,-2648,1508,15488,-331,372,-372
199054484,-2888,1220,15720,16,37,-93
199057680,-3868,1936,15904,-22,49,144
199061063,-3860,-1572,16128,13,16,-4
199064359,-3784,456,15616,-115,151,-123
199067916,-2736,-512,16952,-182,-108,-366
199071647,-2320,1424,15328,-294,256,-272
199075329,-3120,1828,15384,15,2,115
199078524,-3652,-1112,16688,-54,97,121
199081970,-3684,1176,15948,-69,380,86
199085353,-3112,-948,16052,-269,293,-330
199088997,-3408,392,16032,-106,258,-269
199092553,-2904,2352,16072,-297,107,-403
199096197,-2884,856,14940,69,-90,113
199099493,-3900,1188,15392,117,-162,76
199102988,-3632,-1192,16972,-73,-61,-82
199106520,-2816,472,15320,-117,306,26
199109903,-2180,272,16024,-172,42,-422
199113373,-2728,1376,15760,-254,291,-178
199117017,-2756,2084,15096,-117,251,51
199120487,-3952,-1264,16328,121,-40,95
199123957,-4060,944,16360,-1,261,196
199127278,-3024,-452,16424,-316,16,-439
199130810,-2888,932,15264,-138,148,-185
199134367,-3224,1868,15964,-94,-200,-253
199138010,-2952,872,15748,34,24,56
199141133,-3776,680,15144,-130,164,83
199144517,-3668,-1544,17136,-73,176,-239
199148160,-2868,1148,16100,-341,396,-191
199151807,-2724,320,15676,-291,267,-345
199155407,-2892,892,15544,-26,169,-206
199158830,-3220,2636,15748,-31,-68,220
199162300,-3860,-1804,16384,111,-58,211
199165857,-4192,524,15788,43,20,-10
199169067,-2584,148,16724,-107,-123,-285
199172710,-2304,992,15188,-280,267,-239
199176302,-3416,1744,15368,-43,-95,-215
199179848,-2964,528,16068,1,232,120
199183033,-4072,648,16200,-103,271,57
199186417,-3848,-1368,16492,-134,303,-162
199190147,-3096,876,15788,-71,297,-5
199193444,-2744,992,16364,-227,19,-312
199196914,-3104,456,15228,70,-60,184
199200210,-4172,700,15608,125,-231,132
199203704,-3460,-1312,17116,-135,56,-204
199207324,-3488,164,15368,-243,277,-81
199210793,-2336,964,15704,-74,39,-244
199214177,-2736,936,15736,-183,234,-73
199217647,-3076,1792,15212,-32,260,88
199221030,-3796,-1312,16368,79,103,130
199224500,-4052,508,16488,-20,193,83
199227821,-2800,332,16396,-309,85,-407
199231267,-2812,1204,15068,-74,-100,-89
199234823,-3092,1888,15476,100,-98,57
199238207,-3708,-1132,16800,48,-81,106
199241677,-3668,240,15316,-159,290,32
199245060,-2100,404,15896,-216,212,-388
199248617,-2632,1496,15872,-249,282,-145
199252307,-2508,1112,15692,-236,352,-233
199255904,-3216,348,15532,65,24,97
199259027,-4048,1088,16304,48,65,272
199262323,-3912,-1868,16588,-145,104,-229
199266053,-2816,1136,15064,-7,76,-91
199269350,-2564,776,16532,-101,-181,-247
199272993,-3164,796,15928,-165,54,-188
199276502,-3568,1684,15040,-59,136,206
199279958,-3444,-1552,17212,34,115,84
199283317,-3808,804,16140,-161,495,16
199286700,-2724,216,15804,-294,243,-339
199290257,-2924,1132,15624,-76,183,-259
199293813,-3536,2448,15816,-162,1,-126
199297283,-3716,-508,15668,94,-28,133
199300667,-4096,420,15688,-12,77,-4
199303901,-2608,408,16316,-182,-54,-305
199307433,-2316,1264,15124,-209,204,-226
199311077,-2436,1408,15568,-56,-75,-112
199314633,-2972,232,15904,48,216,72
199317843,-3780,652,16244,-59,272,179
199321226,-3748,-1476,16444,-158,309,-199
199324957,-3996,348,16240,-98,292,-73
199328364,-2404,1280,16284,-198,1,-247
199331810,-3428,220,15116,-17,12,-26
199335106,-3364,1992,15260,125,-248,133
199338663,-3380,-1468,17088,111,-17,140
199342220,-3412,188,15364,-277,300,-187
199345776,-2336,1052,15716,-155,59,-435
199349333,-2660,1528,16024,-231,335,-98
199352937,-2652,1316,15644,-176,169,-181
199356534,-3328,120,15716,101,131,156
199359917,-3712,2044,15796,18,59,303
199363213,-3672,-1680,16844,-176,187,-314
199366943,-3844,356,15580,-116,85,-100
199370414,-2932,912,16484,-21,-203,-201
199373970,-2320,1620,15264,-112,97,-72
199377483,-3840,1240,15244,-49,53,210
199380824,-3632,-612,16724,24,248,-4
199384120,-3564,668,16280,-246,346,-100
199387677,-2620,968,15632,-281,329,-355
199391234,-2804,1240,15596,-48,89,-130
199394704,-3492,2352,15700,-150,-62,-80
199398260,-3624,-556,15720,63,78,115
199401560,-3952,200,15740,128,-162,161
199405051,-2928,-912,16912,-175,34,-347
199408583,-2296,1372,15268,-288,328,-215
199412227,-2804,1368,15828,7,-99,-21
199415523,-3120,12,16208,-163,325,12
199418820,-3516,1436,15544,7,156,212
199422117,-3488,-1384,16284,-272,437,-323
199425847,-3784,168,16312,-109,175,-123
199429428,-2560,1664,16060,-268,109,-440
199433047,-2796,1416,14896,23,-89,50
199436344,-3552,1592,15280,56,-253,-12
199439814,-3640,-468,16724,33,47,92
199443023,-3212,72,15256,-261,260,-166
199446493,-2432,1468,15428,-171,187,-459
199450137,-2640,1520,15980,-168,202,-16
199453742,-2684,1840,15536,-108,215,-97
199457250,-3528,-340,15996,51,104,173
199460634,-3872,1636,16024,79,68,312
199463930,-3364,-1260,16748,-314,226,-449
199467660,-3476,612,15332,-75,-8,-115
199471044,-2984,1384,16308,0,-78,-115
199474427,-3640,-272,16472,-24,-98,19
199477852,-3472,1120,15152,-72,194,141
199481280,-2836,-1020,16504,-35,214,-94
199484837,-3112,792,16096,-235,399,-134
199488394,-2696,1420,15556,-282,367,-312
199492037,-2884,1140,15528,-38,49,-124
199495507,-2824,2232,15840,-68,53,54
199498804,-3876,-1000,16076,54,-24,71
199502211,-4020,580,15668,121,-59,129
199505570,-2912,-996,16868,-185,-63,-343
199509214,-2160,1996,15316,-320,294,-402
199512857,-3140,2040,15208,45,-25,200
199516240,-3540,-1120,16744,-61,137,26
199519710,-3648,1916,15504,-49,323,198
199523180,-3528,-1724,16296,70,76,189
199526567,-3640,204,16180,-189,362,-320
199530145,-2612,2296,15920,-290,51,-383
199533677,-3080,648,15156,59,-76,72
199536887,-3556,1608,15136,106,-117,121
199540444,-3732,-1036,16828,4,-71,31
199543740,-2976,476,15416,-313,350,-253
199547297,-2196,4,15800,-142,-21,-431
199550680,-2596,1584,15832,-159,284,-30
199554297,-2700,2064,15404,-109,132,50
199557707,-3720,-856,16268,51,167,75
199561003,-3756,392,16316,9,192,237
199564213,-3180,-936,16904,-284,97,-435
199567770,-2740,1340,14972,-36,-66,36
199571153,-3488,1676,15204,31,-220,-65
199574623,-3616,-696,16536,19,45,109
199577961,-3428,120,15528,-113,140,114
199581390,-2468,-612,16320,-179,173,-450
199585033,-2524,1628,16032,-314,388,-177
199588677,-2736,1708,15452,-127,174,-36
199592233,-2656,1184,15300,10,109,8
199595443,-3912,1632,16068,40,83,283
199598739,-3456,-1460,16964,-244,163,-357
199602494,-3532,364,15468,-109,9,-160
199605853,-2804,1516,16448,-183,21,-442
199609410,-2384,1548,15252,-49,-64,-17
199612880,-3724,1356,14980,-25,15,63
199616176,-3792,-888,16896,16,186,-5
199619473,-3272,528,16200,-300,415,-148
199623029,-3116,-532,16004,-301,398,-364
199626677,-2792,1064,15644,-17,38,-92
199630081,-2660,2092,15996,-81,40,-31
199633440,-3692,-752,15644,45,-41,100
199636823,-3988,144,15840,157,-84,163
199640206,-2892,-708,16968,-238,19,-409
199643763,-2288,1384,15284,-268,228,-252
199647406,-2996,1592,15568,-29,48,22
199650703,-3492,-572,16480,-83,105,95
199654134,-3548,1532,15556,-64,332,150
199657556,-3500,-1336,16356,-206,261,-228
199661286,-3616,-88,16404,-125,310,-247
199664843,-2732,2192,15948,-333,118,-445
199668487,-3008,904,15008,76,-127,69
199671783,-3648,1796,15404,-25,-71,-57
199675253,-3852,-944,16968,60,-81,105
199678678,-3168,336,15468,-129,290,116
199682106,-2400,-224,16404,-176,2,-450
199685576,-2748,1468,15784,-284,371,-133
199689220,-2548,1704,15308,-175,209,-102
199692863,-2760,1256,15352,71,-14,-5
199696160,-3904,1532,15860,5,183,273
199699456,-3288,-1128,16716,-291,98,-461
199703124,-3540,608,15444,-110,155,-98
199706570,-2964,1472,16408,-170,-137,-382
199710300,-2584,1404,15460,-46,24,-7
199713596,-3728,1072,14988,-10,-12,143
199717067,-3692,-1064,16924,-2,225,-86
199720537,-3328,724,15960,-115,373,154
199724007,-3256,-1032,16132,-294,305,-333
199727761,-3428,196,16252,-181,318,-341
199731294,-2772,2612,15652,-18,-124,149
199734850,-3236,388,14980,142,-83,139
199738234,-3896,1304,15268,49,-96,127
199741617,-2764,-932,16884,-31,-56,-59
199745087,-2792,508,15480,-329,346,-306
199748644,-2012,604,15896,-156,-51,-400
199752249,-2680,1384,15776,-66,235,60
199755584,-3608,1292,15800,-114,135,64
199759053,-3796,-1048,16312,30,226,41
199762437,-3760,360,16228,26,195,221
199765733,-2984,-572,16568,-286,121,-424
199769377,-2824,1188,14772,-144,92,-207
199772934,-3044,1808,15852,77,-283,2
199776230,-3876,-788,16928,0,26,29
199779395,-3324,240,15384,-133,149,50
199782736,-2292,-308,16160,-174,156,-419
199786380,-2668,1676,15920,-341,346,-174
199790023,-2560,1840,15256,-114,237,-13
199793580,-2848,996,15380,34,71,38
199796703,-4020,1544,16032,75,139,272
199800086,-3228,-1240,16808,-284,142,-382
199803841,-3492,556,15364,-109,25,-158
199807287,-2884,1400,16196,-144,4,-373
199810757,-2492,1400,15240,-44,-74,4
199814053,-3628,1004,15132,-41,201,170
199817523,-3612,-1108,16976,-58,168,-89
199821080,-3268,808,15932,-246,413,-152
199824637,-2956,-476,15972,-342,401,-387
199828305,-2844,1164,15456,-111,126,-227
199831923,-2940,2196,16128,-59,30,34
199835220,-3828,-1048,15972,28,-66,134
199838690,-3844,848,15368,153,-35,101
199842073,-2804,-612,16756,-207,-70,-379
199845717,-2712,408,15476,-287,229,-284
199849274,-3168,1820,15628,-131,120,-349
199852965,-2680,1032,15624,-42,115,93
199856300,-3732,1232,15832,-75,223,56
199859683,-3880,-1060,16484,-13,118,50
199863154,-3568,232,16140,26,204,186
199866450,-2900,-120,16568,-303,79,-428
199870007,-2940,992,14832,72,-95,94
199873216,-3704,1576,15100,30,-131,-14
199876690,-3860,-1028,17052,30,-84,34
199880111,-2960,244,15424,-122,360,60
199883453,-2200,12,15740,-209,41,-428
199886836,-2672,1368,15772,-53,247,98
199890220,-2676,1776,15268,-166,166,-57
199893776,-3576,-552,15936,89,155,143
199897160,-3976,88,16220,20,211,284
199900369,-3164,-908,16624,-236,66,-438
199903951,-2608,1260,14924,-166,153,-173
199907570,-2952,1776,16120,29,-276,-114
199911126,-3600,-600,16784,40,-35,82
199914423,-3532,984,15092,-143,123,130
199917893,-2552,-688,16544,-14,215,-123
199921449,-3236,704,15740,-312,414,-153
199925006,-2624,1696,15484,-307,275,-392
199928674,-2660,1420,15348,-3,121,-57
199932033,-3740,2000,15720,-37,-74,137
199935503,-3972,-1320,16284,16,107,8
199938799,-3732,380,15476,-111,72,-130
199942270,-2576,-596,16708,-137,-90,-378
199945913,-2384,1492,15292,-292,387,-294
199949557,-3200,1748,15776,34,-115,127
199953076,-2804,1180,15736,-49,266,85
199956410,-3676,1232,15644,-58,255,139
199959880,-3296,-1096,16320,46,198,54
199963263,-3780,408,16040,-148,234,-138
199966820,-2652,1528,16148,-233,75,-383
199970377,-2796,1600,14972,-25,-54,47
199973760,-3972,944,15380,145,-313,144
199977253,-3760,-1268,16932,-83,91,-137
199980821,-2932,436,15176,-175,208,89
199984170,-2220,-148,15772,-152,116,-424
199987813,-2432,1720,15568,-330,398,-172
199991457,-2596,1712,15352,-111,156,-45
199995014,-2720,1496,15152,52,109,58
199998310,-4124,956,16040,67,95,262
200001523,-3172,-672,16592,-296,218,-434
200005188,-3360,744,15244,-102,7,-137
200008547,-3036,1436,16316,33,-138,-99
200012017,-2452,1576,15188,-44,-52,15
200015400,-3632,924,15048,-45,160,144
200018783,-2444,-652,16260,-60,259,-170
200022340,-3320,956,16032,-224,317,-59
200025810,-3088,-952,16076,-299,404,-355
200029478,-2748,1568,15360,-22,11,-82
200032837,-3044,2328,15932,22,-44,161
200036220,-3912,-1316,16240,-57,52,-89
200039690,-3596,552,15408,126,-82,140
200043073,-2784,-904,16704,-229,17,-416
200046630,-2212,1816,15312,-260,199,-293
200050273,-3076,1540,15612,-21,15,66
200053672,-3436,-552,16544,-142,147,24
200057040,-3508,1368,15600,-4,338,206
200060423,-3312,-1052,16188,-282,299,-313
200064153,-3560,448,16092,-89,249,-168
200067623,-2840,1688,16264,-262,142,-414
200071267,-2804,1184,14920,8,-82,54
200074477,-3604,1412,15212,75,-194,-35
200077970,-3772,-792,16888,-9,-78,23
200081282,-3116,332,15360,-200,314,-175
200084800,-2272,-316,16244,-208,86,-450
200088357,-2576,1544,15888,-275,361,-136
200092005,-2640,1632,15492,-185,236,-90
200095557,-3580,-180,16000,0,-33,28
200098767,-3980,1256,16000,55,240,240
200102174,-3292,-1016,16708,-269,55,-412
200105793,-3356,740,15396,-24,52,-45
200109090,-2960,1276,16204,-71,-171,-226
200112733,-2220,1744,15452,32,-133,14
200116117,-3484,1184,15192,-144,157,117
200119673,-3656,-924,16992,-3,167,-93
200123057,-3436,680,15828,-320,510,-96
200126530,-2928,-620,16076,-285,272,-383
200130195,-2724,1176,15404,-25,154,-56
200133640,-2844,2128,16068,-102,-62,21
200137110,-3800,-852,15904,67,86,74
200140320,-3928,424,15740,109,-81,128
200143703,-2940,-840,16856,-180,26,-348
200147260,-2324,1384,15352,-275,331,-269
200150903,-2936,1804,15600,-17,-93,16
200154335,-3488,-660,16472,-32,246,82
200157670,-3592,1452,15524,-78,212,134
200161140,-3448,-1148,16120,33,161,142
200164610,-3824,-96,16340,-153,270,-224
200168167,-2484,2092,16000,-322,64,-479
200171723,-2676,1016,15000,13,0,73
200174846,-3424,1768,15236,96,-157,92
200178253,-3172,-1392,16844,66,-37,81
200181648,-3192,264,15404,-242,255,-212
200185170,-2536,1208,15836,-163,60,-463
200188726,-2644,1636,15724,-207,261,-46
200192283,-3220,1944,15560,-213,174,-188
200195927,-3356,308,15796,81,113,231
200199223,-4108,-288,16644,89,91,379
200202544,-3280,-1252,16812,-272,230,-484
200206250,-3496,936,15556,-92,24,-29
200209546,-2960,944,16296,-22,-93,-266
200213016,-3268,428,16144,-110,-10,-92
200216486,-3628,1096,15040,-7,117,241
200219870,-3056,-1012,16644,-205,156,-462
200223600,-3248,860,16024,-249,326,-58
200227094,-2692,848,15780,-241,409,-293
200230627,-2832,1140,15588,-42,17,-205
200234097,-3452,2336,15816,-106,-4,-53
200237567,-3756,-628,15776,59,-26,123
200240950,-3924,532,15792,94,-76,110
200244246,-2948,-980,16704,-185,18,-301
200247803,-2324,1392,15344,-142,50,-188
200251363,-2868,1348,15828,-7,-8,-37
200254705,-3028,84,16116,-11,170,11
200257866,-4036,432,16160,74,225,222
200261163,-3544,-1464,16576,-276,307,-285
200264893,-3048,984,15580,-96,262,-91
200268276,-2652,1320,16068,-187,8,-189
200271746,-3384,116,15424,108,-5,157
200275043,-4236,536,15432,107,-104,145
200278536,-3276,-1308,16924,-138,-46,-274
200282278,-3396,-20,15652,-219,386,-174
200285800,-2476,1256,15508,-222,117,-478
200289443,-2504,1520,15980,-134,256,-27
200293000,-2608,1328,15668,-202,298,-168
200296643,-3312,84,15592,105,9,163
200299766,-3976,416,16400,36,225,296
200303087,-3568,-1364,16736,-215,90,-347
200306706,-2844,1236,15256,-67,63,-87
200310090,-2752,1172,16292,-78,-157,-205
200313733,-3324,352,16024,-76,-7,-102
200317116,-3612,1372,15012,-97,135,191
200320586,-2976,-1336,16952,-162,122,-394
200324317,-3664,868,15948,-245,496,-83
200327811,-2528,660,15848,-215,232,-299
200331343,-2772,1188,15616,-97,200,-197
200334900,-2748,2324,15932,-134,-43,-38
200338457,-3556,-912,15728,68,26,129
200341753,-4148,564,15756,82,-9,95
200344876,-2892,-972,16772,-138,-43,-286
200348520,-2352,1464,15252,-226,207,-226
200352212,-2696,1380,15860,1,-142,-89
200355547,-3060,32,15968,-26,269,51
200358756,-3920,792,16080,-21,200,212
200362139,-3724,-1532,16484,-204,343,-237
200365870,-3884,348,16220,-123,333,-121
200369427,-2596,1268,16144,-183,-29,-207
200373070,-2968,1116,15036,-22,19,-6
200376370,-3296,1828,15004,130,-200,102
200379947,-3568,-388,16584,75,-45,118
200383341,-3432,124,15428,-224,276,-170
200386863,-2600,-804,16404,-222,100,-466
200390507,-2712,1596,15780,-275,434,-137
200394150,-2708,1424,15480,-142,108,-137
200397794,-2736,1196,15336,-28,87,-64
200401177,-3740,1984,15616,44,54,330
200404498,-3596,-1688,16880,21,81,6
200407683,-3752,364,15556,-129,88,-126
200411153,-2776,1160,16432,13,-226,-161
200414710,-2576,1400,15240,-115,112,-79
200418267,-3384,1336,14932,-36,65,163
200421650,-3536,-804,16768,56,246,18
200424947,-3664,788,16200,-200,323,-44
200428441,-2496,640,15732,-245,378,-296
200431973,-2992,1324,15528,-129,149,-210
200435617,-2556,2380,15816,-66,-116,51
200439087,-3692,-984,15884,-34,101,-12
200442557,-3568,1576,15180,82,-127,90
200445940,-2904,-1156,16796,-155,72,-317
200449584,-3060,284,15488,-282,261,-318
200453189,-2752,1456,15592,-11,3,-17
200456437,-3288,-228,15988,-139,225,24
200459907,-3696,1428,15484,10,258,151
200463290,-3432,-1260,16352,2,220,84
200466587,-4036,140,16156,-64,242,-107
200470057,-2308,1708,16176,-200,15,-155
200473613,-2772,1312,15068,-15,-100,25
200477107,-3460,1600,15140,149,-71,113
200480553,-3504,-488,16632,-10,-69,81
200483972,-3344,116,15424,-216,313,-128
200487493,-2284,-620,16052,-211,168,-470
200491137,-2612,1672,15920,-155,217,-25
200494694,-2648,1856,15556,-127,246,-54
200498250,-3476,-300,15752,-8,56,-46
200501550,-4040,1796,15720,68,186,305
200504955,-3424,-1584,17056,-285,93,-392
200508574,-3600,628,15632,-117,52,-153
200512044,-2972,1184,16272,-49,-161,-127
200515687,-2508,1452,15464,-51,-80,-30
200519157,-3488,1248,15012,-15,72,155
200522540,-3616,-1212,16928,-42,115,-98
200526097,-3364,912,16112,-63,322,114
200529505,-3096,-708,15984,-304,319,-345
200533124,-2840,1264,15448,-141,170,-259
200536767,-2828,2340,16040,-92,-2,69
200540064,-3892,-1172,16092,80,-133,144
200543621,-3744,1192,15332,108,7,104
200546917,-2896,-952,16704,-153,-70,-349
200550561,-2812,400,15488,-267,345,-250
200554178,-2968,1580,15680,-180,71,-404
200557674,-2588,1352,15752,-68,175,27
200561057,-3660,1356,15908,-69,258,65
200564440,-3952,-872,16352,18,78,69
200567650,-3812,152,16224,-97,315,-137
200571120,-2736,1896,16312,-324,59,-442
200574677,-2792,1220,15036,28,-48,39
200577997,-3768,1500,15192,42,-157,-36
200581444,-3724,-900,16712,18,-66,59
200584775,-3200,188,15432,-266,347,-242
200588297,-2276,-100,15964,-194,26,-437
200591854,-2612,1416,15892,-261,388,-135
200595497,-2696,1924,15388,-166,180,-74
200599054,-3680,-652,16184,57,3,30
200602201,-3980,1524,16040,2,190,273
200605473,-3376,-1216,16748,-231,98,-415
200609117,-3296,568,15552,-134,119,-162
200612674,-2968,1480,16272,10,-236,-79
200616144,-2528,1404,15332,-5,-6,-1
200619353,-3712,900,15128,-136,139,195
200622823,-2604,-768,16416,-46,197,-113
200626384,-3252,824,16012,-320,420,-132
200629961,-2544,1468,15476,-304,280,-371
200633580,-2848,1136,15292,9,123,-62
200636877,-3572,2020,15840,-96,-73,36
200640260,-3836,-1016,16000,89,67,77
200643557,-3800,100,15844,-111,40,-151
200647027,-2544,-248,16740,-186,-16,-380
200650670,-2408,1368,15080,-284,320,-260
200654362,-3180,1764,15828,49,-133,101
200657784,-3448,-892,16696,-68,276,96
200661167,-3652,1200,15628,-65,231,146
200664637,-3304,-1084,16304,44,181,12
200668020,-3528,352,16160,-185,235,-236
200671577,-2848,1880,16200,-65,-38,-52
200675047,-2912,1092,15112,-2,-12,37
200678367,-3760,1324,15168,123,-133,117
200681900,-3752,-944,16556,2,56,-1
200685058,-2928,248,15200,-272,262,-213
200688580,-2788,1496,15684,-136,98,-452
200692137,-2596,1340,15920,-164,210,32
200695607,-3684,1412,15588,-69,139,37
200698990,-3668,-852,16140,29,167,55
200702311,-3684,428,16184,-120,244,-130
200705843,-3248,-892,16732,-275,149,-397
200709487,-2752,1464,14960,-4,-91,-30
200712870,-3072,1692,16068,82,-187,19
200716253,-3572,-704,16492,7,-35,10
200719463,-3260,164,15328,-203,376,-144
200723020,-2496,-520,16528,-201,60,-485
200726580,-2660,1668,15736,-286,359,-139
200730244,-2672,1664,15628,-183,237,-90
200733777,-2800,1140,15540,21,-8,-11
200737073,-4000,1540,15772,40,227,328
200740456,-3300,-1344,16832,-43,28,-60
200743926,-3488,756,15476,-97,99,-114
200747310,-2964,1072,16256,-33,-231,-140
200750953,-2404,1516,15260,-76,-9,-60
200754385,-3824,980,15052,31,11,165
200757546,-2964,-936,16684,-13,179,-89
200761016,-3416,688,15972,-315,455,-105
200764573,-2544,1428,15688,-294,271,-391
200768216,-2720,1248,15408,26,131,-64
200771600,-3016,2324,16036,-103,-79,104
200775156,-3852,-1080,16104,67,54,33
200778476,-3892,328,15776,138,-4,153
200781749,-2768,-608,16800,-191,-80,-362
200785428,-2316,1560,15240,-272,342,-282
200789036,-3144,1684,15892,27,-146,68
200792420,-3536,-656,16660,-65,237,78
200795803,-3664,1192,15660,-75,263,145
200799273,-3284,-1124,16316,41,121,54
200802681,-3484,372,15912,-179,302,-235
200806213,-2716,2228,15908,-285,11,-415
200809770,-3088,940,15124,67,-11,100
200813066,-3628,1384,15184,73,-133,101
200816536,-3660,-884,16856,58,-3,59
200819746,-2924,128,15320,-328,353,-314
200823303,-2952,1700,15464,-129,-5,-449
200826884,-2468,1424,15764,-160,249,-2
200830329,-3520,1492,15524,-80,137,-6
200833713,-3712,-772,16544,72,174,99
200837009,-3540,384,16188,-149,261,-175
200840566,-3148,-708,16600,-256,189,-435
200844209,-2912,1204,14996,-148,17,-132
200847766,-3132,1508,16264,35,-170,-69
200851240,-3552,-528,16472,-33,8,39
200854494,-3636,528,14972,-62,122,144
200857829,-2304,-124,16256,-211,133,-476
200861473,-2964,904,15708,-314,338,-129
200865029,-2540,1784,15316,-98,235,-44
200868499,-2780,1216,15496,41,23,27
200871709,-4140,1424,15896,8,213,289
200875006,-3160,-1276,16424,-63,146,-92
200878585,-3432,716,15400,-85,36,-140
200881946,-3020,1204,16456,-23,-98,-109
200885537,-2488,1532,15528,-75,-66,-24
200888972,-3692,992,15020,56,-2,173
200892182,-2792,-880,16656,-11,163,-128
200895739,-3472,752,16044,-312,446,-145
200899296,-2752,-392,15948,-288,370,-417
200902963,-2772,1180,15448,-136,134,-238
200906583,-2956,2448,15888,-24,8,63
200909792,-3788,-1304,16228,-2,-30,8
200913089,-3696,504,15560,103,46,94
200916299,-2644,-524,16560,-188,-108,-358
200920029,-2392,1576,15356,-287,249,-284
200923672,-3444,1796,15660,-28,14,116
200927080,-3424,-916,16680,-57,130,70
200930439,-3964,1016,15772,-17,358,143
200933909,-3148,-960,16208,-60,174,-11
200937379,-3280,444,15952,-112,297,-220
200940936,-2864,2096,16012,-283,75,-432
200944492,-2892,1056,14992,64,-100,103
200947962,-3824,1172,15248,74,-134,44
200951349,-3572,-908,16872,-46,-52,-67
200954865,-3080,180,15016,-59,263,96
200958112,-2228,112,16236,-191,-3,-440
200961582,-2656,1604,15716,-97,289,25
200964965,-3668,1352,15496,-62,127,39
200968349,-3836,-812,16284,71,141,81
200971645,-3688,348,16184,-149,260,-150
200975202,-3172,-860,16636,-256,53,-417
200978782,-2780,1256,15060,-121,142,-164
200982402,-3036,1728,15872,33,-268,4
200985733,-3640,-772,16764,37,-3,70
200988908,-3560,884,15176,-155,158,94
200992291,-2348,-384,16152,-140,132,-428
200995935,-3168,756,16024,-344,422,-201
200999492,-2664,1956,15396,-70,118,-41
201002986,-2840,964,15484,36,142,17
201006171,-4000,1716,15828,14,115,283
201009555,-3552,-1388,16844,-243,189,-429
201013285,-3528,620,15560,-146,42,-153
201016755,-2880,1340,16240,-158,-116,-345
201020485,-2496,1520,15260,-74,4,-55
201023782,-3528,1028,14932,29,-106,149
201027276,-3744,-1308,17136,-46,318,-100
201030895,-3772,1300,15792,-80,274,135
201034365,-3040,-972,16004,-268,378,-363
201038009,-3232,328,15956,-224,286,-321
201041565,-2880,2576,15580,-235,-63,-327
201045209,-3180,448,15296,107,-33,154
201048592,-3960,908,15468,20,-203,34
201051991,-3444,-1216,16900,-12,-30,-94
201055446,-2740,672,15264,-336,317,-295
201059002,-2260,572,15676,-98,-52,-357
201062472,-2508,1372,15576,-292,415,-98
201066029,-2780,1976,15364,-88,115,9
201069325,-4072,-984,16540,21,247,121
201072709,-4336,436,16488,-34,209,100
201076092,-2700,204,16396,-226,83,-411
201079585,-3128,776,15236,-122,64,-105
201083032,-3232,1824,15824,18,-199,-30
201086541,-3680,-892,16864,24,-20,114
201089885,-3628,304,14952,-114,204,92
201093268,-2128,120,16112,-180,51,-416
201096739,-3140,1108,15724,-309,360,-114
201100382,-2700,1784,15512,-240,276,-326
201104050,-2752,1132,15516,-8,53,52
201107235,-4204,1136,16064,22,218,285
201110619,-3928,-1652,16684,-74,119,-138
201114262,-3284,632,15408,-130,40,-178
201117732,-2764,68,16672,-148,-17,-344
201121202,-2476,1300,15444,-53,-79,-7
201124585,-3684,1908,15504,8,23,173
201127820,-3632,-1344,17100,-29,136,-146
201131439,-3424,828,16140,-104,334,76
201134822,-2828,-336,15776,-317,325,-366
201138465,-3036,548,15992,-119,157,-251
201142022,-3112,2296,15904,-70,67,104
201145405,-3760,-1316,16232,54,-129,131
201148962,-3980,736,15592,112,26,114
201152307,-2684,-460,16700,-74,12,-163
201155729,-2676,532,15304,-255,265,-278
201159285,-3208,1836,15632,-133,32,-338
201162842,-2548,1180,15664,-92,156,30
201166225,-3660,1580,15704,-69,214,13
201169609,-4052,-1004,16576,65,115,131
201173078,-3608,56,16076,-3,278,134
201176292,-2752,2420,15816,-307,40,-442
201179868,-3084,616,15240,94,2,91
201182881,-3736,1636,15216,77,-118,126
201186355,-3752,-936,16864,15,-35,43
201189683,-3156,192,15408,-310,355,-261
201193205,-2844,1444,15852,-169,-24,-445
201196848,-2556,1416,15796,-152,302,-40
201200405,-2620,1996,15376,-106,108,-5
201203899,-3736,-696,16308,86,182,114
201207258,-4260,1368,16048,-40,190,273
201210728,-3232,-984,16620,-244,83,-402
201214285,-3284,584,15472,-147,148,-164
201217842,-3132,1444,16220,-13,-254,-96
201221398,-2580,1516,15496,-8,18,28
201224608,-3620,1080,15076,-86,104,123
201228103,-2632,-640,16348,24,201,-121
201231548,-3344,672,16096,-310,383,-112
201235105,-2400,1660,15496,-296,316,-406
201238748,-2736,1308,15276,-33,50,-52
201242131,-3068,2208,15976,-81,-76,90
201245515,-3664,-1120,16068,16,113,30
201248898,-3964,372,15668,95,-124,95
201252243,-2788,-676,16756,-148,32,-345
201255751,-2296,1380,14972,-144,11,-148
201259308,-3088,1808,15652,34,-73,50
201262605,-3340,-564,16512,-12,191,20
201265988,-3820,692,16096,-19,199,169
201269371,-3404,-1348,16368,-247,379,-290
201273101,-3640,8,16268,-180,243,-274
201276488,-2652,2252,15972,-93,5,-10
201279804,-3612,-840,15668,-6,-73,41
201283078,-3512,1832,15156,110,-83,127
201286548,-3100,-1344,16832,-202,-32,-329
201290313,-3292,400,15340,-258,304,-248
201293835,-2660,1364,15712,-155,135,-434
201297478,-2712,1436,15724,-182,223,-50
201301035,-2500,1796,15556,-92,181,-48
201304529,-3520,-364,16164,27,80,137
201307801,-3972,236,16292,55,157,282
201311098,-3212,-1188,16648,-257,162,-372
201314828,-2840,1204,15024,-126,28,-125
201318385,-3008,1384,16416,-18,-144,-149
201322028,-2388,1452,15540,-94,-26,-25
201325498,-3676,1044,15076,-27,140,184
201328993,-3512,-1000,16836,-70,232,-71
201332525,-3472,708,16004,-237,368,-136
201336082,-2940,-736,16196,-342,404,-399
201339725,-2684,1232,15412,-152,190,-212
201343369,-2812,2252,15764,-59,-23,40
201346752,-3564,-940,15980,27,-31,66
201350049,-3892,1044,15524,150,-72,167
201353567,-2704,-796,16604,-81,90,-88
201356902,-2888,360,15432,-253,215,-258
201360459,-3084,1648,15796,-35,18,44
201363755,-2600,1288,15572,-103,151,-22
201367312,-3672,1372,15720,-1,325,208
201370695,-3496,-1264,16468,3,123,61
201373992,-3568,316,16140,-101,269,-146
201377571,-2620,1716,16280,-278,124,-409
201381192,-2884,1272,15236,6,-54,62
201384402,-3600,1524,15244,100,-103,165
201387958,-3560,-884,16784,-27,-33,15
201391377,-3252,304,15376,-233,380,-192
201394898,-2204,-428,16220,-209,29,-458
201398455,-2664,1692,15652,-294,380,-194
201402123,-2604,1836,15632,-126,136,-28
201405655,-2768,1168,15416,28,14,25
201408865,-3972,1520,15792,18,211,289
201412248,-3384,-1192,16740,-248,84,-412
201415892,-3504,512,15600,-91,135,-129
201419362,-2964,1408,16204,-206,-59,-378
201423005,-2512,1460,15288,-34,-15,-14
201426479,-3752,988,15232,-5,31,98
201429623,-3676,-880,16708,3,179,-73
201432895,-3588,656,16124,-273,428,-113
201436452,-2604,1096,15600,-271,270,-379
201440095,-2684,1396,15324,-92,170,-124
201443652,-2996,2448,15936,-21,-121,138
201447209,-3864,-1396,16124,22,92,-5
201450505,-3804,1264,15380,38,-37,126
201453937,-2900,-1016,16940,-158,-48,-367
201457618,-2880,528,15380,-305,407,-322
201461175,-3096,1656,15540,24,-143,77
201464559,-2576,1188,15560,-74,267,41
201467942,-3584,1532,15644,-27,163,183
201471412,-3900,-888,16356,59,132,156
201474795,-3932,-60,16376,-173,296,-192
201478375,-2648,1728,16076,-272,36,-428
201481908,-2728,1280,14884,-22,29,14
201485205,-3820,1332,15220,81,-300,28
201488588,-3492,-832,16716,-1,64,-31
201491920,-3248,244,15272,-280,244,-177
201495442,-2196,-360,16132,-199,70,-462
201498998,-2508,1572,15888,-171,238,-25
201502580,-2792,1924,15692,-91,114,-20
201506025,-3452,-296,16032,48,202,91
201509322,-4104,1588,15896,1,106,279
201512618,-3384,-1260,17004,-194,156,-348
201516348,-3440,516,15548,-170,101,-197
201519905,-2932,1404,16088,41,-211,-111
201523462,-2396,1380,15408,-58,40,-11
201526870,-3600,1236,15016,-52,33,154
201530228,-3648,-1204,16872,15,253,-27
201533698,-3520,680,15972,-294,349,-137
201537255,-2892,-492,16044,-280,326,-359
201540899,-2820,1064,15556,-75,67,-108
201544369,-2892,2464,15948,-41,-83,58
201547752,-3652,-1120,16068,0,56,55
201550961,-3868,428,15696,82,-100,124
201554405,-2752,-604,16696,-175,55,-355
201557902,-2352,1404,15272,-277,219,-287
201561545,-2856,1840,15692,21,6,110
201564755,-3412,-744,16460,25,180,-18
201568138,-3692,1436,15628,-27,239,159
201571608,-3332,-1236,16484,-274,354,-298
201575338,-3684,248,16024,-131,230,-195
201578918,-2620,2100,16012,-279,122,-424
201582539,-2884,1096,15036,1,-94,65
201585748,-3616,1416,15280,163,-79,145
201589218,-3572,-860,16660,-52,14,41
201592550,-3260,196,15424,-213,302,-192
201596072,-2208,-288,16144,-178,167,-478
201599715,-2552,1720,15680,-162,221,-9
201603210,-2716,1980,15676,-51,245,9
201606482,-3652,-608,16208,-2,93,87
201609691,-3936,376,16100,-46,316,-37
201613075,-3368,-1400,16900,-253,80,-429
201616718,-2688,1376,14884,-144,67,-167
201620275,-2992,1492,16284,30,-190,-128
201623832,-3440,-300,16580,-79,-52,-33
201627326,-3692,1136,15100,-40,169,200
201630772,-2660,-868,16464,-25,201,-117
201634328,-3184,824,16188,-229,369,-108
201637885,-2468,1516,15492,-320,356,-373
201641529,-2900,972,15360,20,87,-67
201644738,-3836,2040,15816,-78,-3,42
201648035,-3680,-1084,16040,-12,19,18
201651422,-3884,328,15500,-120,154,-117
201655023,-2692,-608,16720,-195,-93,-344
201658618,-2376,1516,15320,-254,286,-265
201662262,-3152,1524,15644,-31,-74,57
201665645,-3504,-540,16580,-102,157,67
201669115,-3980,1136,15784,-54,325,153
201672585,-3180,-960,16296,-42,121,-32
201676055,-3584,428,15988,-132,317,-168
201679635,-2688,1996,16160,-286,47,-425
201683169,-2824,1092,15124,53,-18,100
201686552,-3980,1292,15180,75,-258,36
201689940,-3720,-1064,16820,-34,-1,-37
201693440,-3076,292,15224,-285,332,-241
201696962,-2044,100,15828,-150,-8,-422
201700432,-2596,1452,15688,-158,290,29
201703926,-2692,1980,15580,-101,109,-24
201707459,-3760,-636,16176,76,63,51
201710668,-3780,200,16176,3,178,277
201713878,-3196,-860,16732,-267,135,-434
201717521,-2748,1240,14996,-135,96,-166
201721078,-3100,1336,16064,29,-250,-77
201724548,-3396,-236,16580,-35,39,2
201727783,-3800,556,15200,-88,118,165
201731141,-2468,-340,16404,-178,180,-448
201734785,-3200,792,15832,-326,337,-122
201738342,-2576,1780,15376,-145,234,-93
201741898,-2688,1252,15196,6,68,-34
201745108,-3988,1616,15844,56,123,297
201748491,-3320,-1416,16840,-18,129,-33
201752097,-3480,516,15384,-120,70,-126
201755518,-3064,1228,16380,-102,-58,-313
201759162,-2320,1448,15280,-114,-26,-76
201762718,-3300,1828,15668,80,-95,154
201766102,-3676,-1060,16924,-26,220,-43
201769658,-3864,1316,15940,-33,208,193
201773128,-3136,-1200,16216,-308,397,-379
201776882,-3424,276,15924,-188,239,-293
201780415,-2852,2328,15896,-227,3,-352
201783885,-3012,692,15076,20,5,94
201786922,-4036,1256,15144,135,-64,155
201790392,-2752,-1020,16928,-43,42,-52
201793897,-2928,344,15148,-308,288,-287
201797418,-2904,1588,15628,-113,79,-396
201800975,-2572,1332,15816,-113,150,71
201804470,-2984,2104,15380,-54,182,48
201807828,-3872,-1188,16504,32,102,47
201811211,-3596,452,16072,18,213,222
201814508,-3104,-744,16640,-321,96,-459
201818065,-2880,1112,15132,24,-53,60
201821361,-3728,1636,15176,37,-166,-79
201824831,-3488,-752,16724,-14,-87,62
201828239,-3224,84,15368,-96,214,93
201831424,-2332,-56,16360,-185,20,-467
201834894,-2452,1644,15652,-167,316,-7
201838364,-2656,2016,15316,-128,159,-27
201841921,-3692,-584,16216,79,120,125
201845304,-4040,1484,15908,-14,253,301
201848774,-3436,-1436,16652,-241,61,-406
201852466,-3488,764,15496,-104,146,-129
201855975,-2848,1216,16396,25,-266,-152
201859531,-2424,1536,15420,-41,-29,0
201862828,-3740,820,15244,-83,128,185
201866211,-2664,-572,16256,-46,191,-160
201869768,-3276,844,15904,-299,418,-139
201873325,-2936,-612,16152,-311,270,-407
201876991,-2792,1300,15448,-121,237,-226
201880612,-2920,2348,16016,-88,-69,65
201883995,-3776,-1128,16012,82,-94,149
201887465,-3948,900,15648,83,-2,86
201890588,-2684,-520,16724,-174,-32,-336
201894266,-2808,532,15228,-242,309,-250
201897788,-3176,1780,15696,-24,-83,53
201901175,-2480,1316,15608,-34,229,98
201904579,-3924,984,16100,-57,260,156
201907938,-3148,-1000,16312,-28,186,-37
201911495,-3612,332,15908,-138,286,-151
201915051,-2852,1932,16208,-285,40,-403
201918608,-2744,1160,15104,11,12,101
201921904,-3900,1272,15248,101,-291,39
201925375,-3648,-944,16968,26,54,40
201928609,-2972,92,15288,-319,259,-273
201932054,-2116,260,15924,-148,71,-460
201935524,-2580,1320,15896,-143,217,37
201938994,-3652,1668,15476,-82,123,8
201942291,-3544,-736,16144,22,176,87
201945587,-3928,304,16072,-80,231,-125
201949057,-3128,-804,16684,-255,166,-438
201952750,-2880,1228,14960,-163,71,-156
201956258,-3152,1532,16204,59,-212,-70
201959728,-3748,-560,16824,-3,9,37
201962851,-3228,-76,15452,-123,140,155
201966321,-2380,-440,16188,-210,181,-510
201969964,-3164,1020,16000,-303,311,-130
201973608,-2572,1440,15504,-156,270,-149
201977274,-2736,1420,15456,-21,57,-15
201980634,-4040,1244,15956,75,127,309
201984018,-3860,-1568,16240,-100,179,-126
201987748,-3476,528,15404,87,-73,98
201990958,-2640,-488,16744,-149,-4,-406
201994549,-2368,1872,15388,-35,-106,-2
201997984,-3532,1620,15532,22,11,197
202001284,-3604,-984,16924,-45,226,-130
202004862,-3872,940,15852,-31,244,169
202008221,-2844,-616,15964,-326,382,-411
202011864,-3304,628,15748,-127,170,-226
202015421,-2924,2132,16064,-67,42,14
202018718,-3712,-1060,16052,44,-93,93
202022101,-3932,900,15320,123,7,108
202025311,-2844,-664,16684,-181,-86,-379
202028979,-2656,440,15260,-279,304,-262
202032511,-3160,1620,15620,-111,77,-381
202036068,-2560,1368,15612,-81,175,74
202039451,-3824,1272,15764,-37,336,196
202042921,-3816,-1116,16488,-38,153,-15
202046478,-3668,388,15932,38,177,211
202049774,-2992,-452,16692,-344,115,-446
202053520,-2932,1244,15156,-160,-21,-145
202057061,-3120,1752,15880,76,-169,4
202060358,-3784,-880,16780,-14,-49,-21
202063828,-3580,588,15188,-104,256,74
202067211,-2208,-68,15908,-187,29,-420
202070681,-2916,1064,16028,-276,377,-193
202074324,-2652,2064,15384,-99,140,-8
202077731,-2800,936,15368,37,58,40
202080831,-4004,1496,16044,-18,229,247
202084301,-3312,-1200,16872,-227,97,-415
202087944,-3220,764,15372,-142,130,-194
202091501,-3076,1636,16100,-153,-189,-326
202095270,-2576,1268,15496,12,6,16
202098354,-3692,940,15172,-42,-14,163
202101762,-3544,-1404,17108,-41,201,-153
202105381,-3372,904,15892,-143,416,52
202108764,-2744,-100,16028,-315,274,-362
202112408,-2744,1240,15392,-97,262,-249
202115964,-3164,2492,15692,-4,-89,149
202119347,-3688,-1476,16296,90,-43,133
202122818,-4136,792,15668,57,-31,94
202126027,-2640,-408,16724,-155,-65,-382
202129695,-2444,836,15252,-307,310,-293
202133227,-3400,1624,15596,-78,-88,-243
202136784,-2684,1108,15676,-62,281,31
202140168,-3852,1156,15792,-48,222,184
202143638,-4028,-1332,16532,25,216,12
202147021,-3260,296,15928,-264,275,-313
202150578,-2456,796,16220,-232,-34,-368
202154183,-3152,472,15336,-46,97,-39
202157431,-3324,1960,15832,40,-270,1
202160727,-3768,-1200,16812,-8,62,-28
202164111,-2904,348,15260,-304,266,-297
202167667,-2036,444,15888,-121,81,-388
202171137,-2708,1416,15652,-299,352,-167
202174781,-2780,2048,15144,-43,172,99
202178187,-3948,-972,16340,70,104,73
202181461,-4360,968,16300,5,191,191
202184670,-2960,-704,16516,-300,139,-423
202188314,-2900,984,15056,-157,22,-199
202191784,-3236,1864,15940,99,-167,2
202195084,-3452,-940,16700,-6,-110,65
202198499,-3676,776,14992,-103,242,82
202201871,-2204,-244,16096,-184,31,-430
202205404,-3128,848,15960,-290,335,-169
202208960,-2672,2044,15256,-144,204,-41
202212517,-2776,1168,15488,47,-14,22
202215814,-4104,1344,15976,-2,252,289
202219197,-3252,-1076,16820,-60,28,-100
202222754,-3136,664,15308,-145,148,-150
202226314,-2512,140,16532,-181,-113,-360
202229978,-2456,1460,15228,-212,163,-261
202233597,-3608,1768,15468,-15,16,197
202236981,-3716,-1164,17004,-54,150,74
202240451,-3844,552,16100,-79,375,80
202243747,-2836,-320,15964,-320,304,-381
202247390,-3116,740,15788,-85,192,-248
202250861,-2968,2304,15816,-272,109,-319
202254552,-3072,776,15164,94,-99,155
202257801,-4216,612,15612,78,37,106
202261010,-2580,-288,16724,-128,-19,-205
202264654,-2684,808,15012,-270,302,-273
202268211,-2116,828,15856,-100,-54,-283
202271767,-2736,1068,15912,-81,229,34
202275151,-3044,2096,15208,-55,216,123
202278644,-4156,-1500,16748,-35,181,-31
202282177,-4292,796,16328,-33,320,134
202285561,-2792,-200,16632,-262,17,-400
202289117,-2836,1104,15192,-119,94,-163
202292674,-3268,1864,15736,113,-270,86
202296144,-3140,544,16048,63,-68,144
202299475,-3636,252,15252,-183,262,-11
202302935,-2028,516,15916,-128,159,-379
202306467,-2860,1312,15892,-275,415,-120
202310111,-2644,552,15692,-282,214,-329
202313668,-2964,832,15412,76,115,108
202316964,-3460,2416,15596,13,0,271
202320174,-3848,-1816,16772,-84,106,-208
202323817,-2988,920,15168,-39,122,0
202327052,-2612,512,16624,-68,-198,-265
202330584,-2920,884,15688,-45,19,67
202333794,-3564,544,15212,-17,-30,207
202337177,-3536,-1468,17136,-65,256,-237
202340820,-2936,1124,15752,-196,328,0
202344204,-2736,216,15724,-247,331,-350
202347760,-2868,1012,15492,-112,169,-260
202351407,-3224,2508,15708,-25,-37,184
202354922,-3256,60,15288,87,53,136
202357997,-4120,448,15800,50,-20,44
202361207,-2652,120,16752,-117,-52,-353
202364763,-2460,1300,15440,-279,149,-238
202368407,-3488,1800,15276,40,47,202
202371703,-3560,-1356,17124,-31,209,94
202375173,-3832,688,16164,-136,357,42
202378580,-2748,-176,16060,-138,344,-150
202382200,-3128,632,15772,-119,196,-268
202385757,-2628,896,16344,-243,77,-320
202389227,-2944,536,15160,60,-118,142
202392610,-4336,652,15724,180,-193,149
202396080,-3288,-1084,16728,-147,13,-226
202399759,-3584,-44,15392,-160,242,-76
202403218,-2284,1052,15696,-142,-15,-285
202406837,-2600,1384,16056,-231,253,-76
202410394,-2996,1920,15076,-43,252,166
202413864,-3212,280,15740,106,5,142
202417074,-4288,476,16404,-54,342,55
202420370,-2812,320,16364,-248,-27,-376
202423927,-2768,1156,14860,-88,73,-139
202427421,-3412,1892,15632,-56,-164,-161
202431040,-3260,324,15884,14,-38,80
202434250,-3624,364,15284,-183,275,-30
202437720,-3052,-1144,16904,-134,124,-324
202441450,-2792,1208,16124,-220,456,-92
202445007,-2508,1000,15536,-236,209,-267
202448650,-3020,1192,15632,4,94,-134
202451996,-3632,2192,15688,2,44,276
202455157,-3692,-1712,16612,-133,125,-232
202458887,-4064,368,15744,-42,87,-58
202462184,-2840,712,16392,-79,-180,-238
202465740,-2280,1536,15092,-185,166,-161
202469384,-3672,1464,15224,-16,-99,-37
202472854,-3176,-108,16120,61,272,64
202476154,-3796,436,16208,-234,354,-73
202479644,-3408,-1148,16248,-216,336,-308
202483351,-3036,1008,15752,-110,294,-161
202486994,-2700,1856,16088,-168,-17,-113
202490638,-2720,1324,14940,34,-15,94
202493934,-3696,1508,15160,113,-170,147
202497491,-3516,-852,16836,5,18,39
202500649,-3144,208,15116,-294,305,-243
202504195,-2624,1416,15504,-196,11,-488
202507727,-2604,1608,15868,-156,258,6
202511111,-3500,1488,15532,22,248,188
202514494,-3684,-540,16060,40,204,81
202517790,-3784,408,16284,-80,195,-86
202521174,-2612,1364,16360,-236,133,-406
202524817,-2572,1416,14884,-53,-99,-21
202528312,-3608,1632,15252,80,-257,-14
202531757,-3552,-632,16840,-7,48,58
202534967,-3192,16,15264,-265,294,-182
202538437,-2552,-520,16496,-149,182,-480
202542080,-2532,1524,15968,-324,384,-140
202545724,-2452,1536,15492,-174,258,-162
202549367,-2832,1584,15232,-18,105,-6
202552811,-4048,1268,15872,95,122,314
202556134,-3204,-1124,16692,-70,149,-111
202559777,-3356,592,15448,-120,51,-150
202563247,-2684,-296,16868,-88,-76,-324
202566804,-2284,1612,15284,-97,-11,-44
202570274,-3180,1760,15372,75,-84,182
202573657,-3628,-1296,17180,-58,254,-116
202577324,-3676,820,16000,-117,246,80
202580684,-2952,-560,15836,-318,377,-336
202584328,-3216,364,15884,-100,135,-235
202587884,-2984,2304,16044,-60,20,29
202591181,-3024,808,14816,43,-76,132
202594477,-4140,928,15564,137,-61,104
202597861,-2760,-532,17056,-187,-59,-349
202601539,-2708,544,15176,-304,246,-257
202605085,-3056,1668,15540,-90,58,-334
202608531,-2668,1332,15864,-99,152,64
202611914,-3880,916,15856,-8,155,109
202615211,-3924,-1244,16380,-78,234,-12
202618767,-3532,296,16132,-92,217,-184
202622237,-2752,-40,16616,-315,156,-420
202625794,-2736,1112,15028,87,-126,149
202629289,-3312,1896,15616,127,-164,96
202632734,-3592,-1076,17128,-71,-39,-72
202636291,-3724,416,15036,-99,240,25
202639587,-2288,212,15776,-163,5,-407
202642971,-2632,1568,15784,-272,299,-151
202646614,-2640,1940,15208,-112,223,54
202650084,-3040,768,15420,51,-5,51
202653255,-4044,1108,16100,24,240,217
202656590,-2892,-568,16608,-289,34,-457
202660147,-2936,1064,14836,-136,141,-178
202663791,-3468,1596,15936,-52,-252,-224
202667434,-2820,1020,15752,3,-4,62
202670557,-3944,408,15200,-172,202,101
202674027,-3572,-1388,17152,-83,166,-245
202677694,-2892,1080,16120,-158,441,7
202681054,-2556,452,15732,-309,241,-376
202684611,-2904,988,15148,104,88,71
202687820,-4020,1340,16144,-14,-33,206
202691290,-4056,-1656,16556,-69,106,-106
202694934,-4200,272,15676,18,91,22
202698057,-2616,324,16688,-102,-182,-303
202701743,-2672,1360,15564,-236,256,-183
202705344,-3380,1668,15204,25,-36,178
202708727,-3564,-1228,17116,30,236,107
202712197,-3972,480,16064,-183,325,27
202715580,-2748,56,15676,-149,269,-214
202719050,-3148,696,15804,-109,168,-250
202722607,-3096,2584,15792,-243,7,-298
202726077,-3280,364,15292,95,-10,197
202729398,-4228,348,15512,39,-14,17
202732583,-2700,-36,16868,-109,45,-221
202736053,-2404,872,15248,-283,195,-280
202739610,-3308,1824,14964,-50,-16,-233
202743167,-2820,732,15736,-9,139,121
202746463,-4000,660,16256,-95,378,67
202749760,-3660,-1136,16456,-166,313,-170
202753538,-3344,572,15884,-17,177,-12
202756873,-2628,864,16424,-255,85,-322
202760343,-3176,564,15256,96,-161,160
202763727,-3456,1904,15384,114,-125,155
202767283,-3532,-1316,17120,-93,-82,-169
202770927,-3540,320,15408,-229,278,-39
202774397,-2388,612,15796,-162,220,-363
202777978,-2716,1332,16060,-269,305,-179
202781597,-3072,2268,15312,-193,277,-177
202785240,-3584,-136,15772,82,37,141
202788537,-3920,860,16284,45,99,232
202791747,-3684,-1620,16764,-210,99,-311
202795390,-2752,1184,15084,-122,78,-135
202798947,-2796,1204,16412,3,-126,-195
202802459,-3228,252,16148,-122,-12,-93
202805887,-3780,1364,15008,-30,161,215
202809357,-3208,-1304,16992,11,181,-18
202812827,-3752,856,16168,-231,439,-66
202816297,-2620,516,15852,-227,389,-316
202819854,-2920,1484,15540,-91,76,-246
202823324,-3724,2048,15836,-17,7,99
202826537,-3792,-1252,15868,8,7,22
202829681,-3928,596,15420,-11,141,-8
202832953,-2756,440,16744,-72,-204,-266
202836510,-2212,1600,15256,-160,182,-181
202840153,-3700,1480,15200,-10,-2,246
202843537,-3312,-420,16240,44,219,5
202846746,-3720,720,16108,-246,356,-25
202850216,-2596,476,15708,-191,287,-274
202853821,-3112,856,15688,-72,198,-236
202857243,-3400,2612,15624,-196,-80,-142
202860887,-3564,-488,15460,115,34,153
202864270,-4196,552,15620,103,-138,64
202867653,-3052,-856,16936,-88,-41,-193
202871210,-2388,1188,15500,-304,363,-198
202874853,-2604,1568,15480,-3,-94,-119
202878348,-2480,1584,15736,-152,280,13
202881793,-3564,1684,15480,-25,167,185
202885263,-3632,-1520,16340,46,230,97
202888647,-3816,376,16308,-63,160,-91
202892030,-2684,1168,16436,-181,91,-240
202895587,-2692,1412,14948,-49,-83,-9
202898970,-3404,1544,14980,159,-122,94
202902481,-3408,-404,16688,36,-22,121
202905823,-3320,-116,15440,-286,352,-189
202909467,-2396,-448,16360,-206,183,-480
202913110,-2492,1676,15900,-297,328,-134
202916754,-2548,1624,15552,-144,271,-85
202920310,-3068,1036,15456,8,68,-40
202923520,-3908,1780,16032,51,146,319
202926928,-3484,-1444,17000,-307,116,-453
202930634,-3476,912,15272,-137,38,-177
202934104,-3024,1164,16340,-58,-94,-301
202937660,-2408,1536,15512,-97,-27,-99
202941130,-3884,960,14980,84,-84,199
202944427,-3744,-1400,17000,-79,253,-145
202948070,-3216,816,15936,-87,297,47
202951370,-2964,-444,15996,-314,401,-358
202955060,-2944,1216,15308,-128,166,-219
202958654,-3036,2484,16148,-37,12,96
202961950,-3956,-1292,16280,74,-126,149
202965507,-4192,700,15588,103,9,67
202968630,-2612,-376,16768,-162,-155,-323
202972360,-2508,656,15260,-296,295,-303
202975917,-3324,1784,15232,-106,44,-328
202979498,-2468,1100,15692,-34,161,98
202982857,-3940,904,16044,-32,259,144
202986240,-3856,-1268,16392,-87,175,-76
202989797,-3196,480,16008,5,266,74
202992920,-3156,2456,15860,-302,3,-402
202996390,-3056,736,15256,121,-48,191
202999773,-4068,1068,15232,60,-162,55
203003198,-3712,-1060,17092,-4,-90,-50
203006626,-2768,252,15524,-397,388,-340
203010183,-2108,764,15884,-137,-36,-411
203013740,-2620,1120,15764,-225,378,-83
203017297,-2888,1888,15220,-87,133,52
203020680,-3792,-1188,16460,9,250,5
203023890,-3648,304,15832,-30,201,127
203027297,-3068,-168,16640,-256,88,-426
203030830,-2916,1108,15200,-140,119,-131
203034473,-3236,1828,15620,72,-236,49
203037856,-3644,-988,16880,85,14,101
203041153,-3648,360,15208,-220,210,45
203044536,-2104,172,15812,-114,118,-422
203048093,-2964,1368,16108,-319,342,-191
203051839,-2904,1972,15256,-234,249,-290
203055380,-2880,600,15320,22,113,24
203058590,-4044,1084,16360,41,-74,264
203061973,-3872,-1940,16588,-143,200,-230
203065703,-2764,1260,14980,-42,-5,-91
203069087,-2876,432,16632,-54,-92,-213
203072557,-2848,1132,15536,-245,165,-259
203076204,-3812,1672,15240,-10,25,232
203079608,-3564,-1664,17160,7,245,91
203082880,-3932,408,16296,-198,320,-62
203086350,-2616,388,15840,-276,353,-315
203089907,-3104,836,15680,-87,106,-232
203093376,-3324,2728,15720,40,50,269
203096673,-4008,-2044,16508,80,-73,191
203100143,-4112,560,15740,49,84,-35
203103398,-2664,200,16468,-139,-175,-288
203106996,-2196,1356,15112,-222,183,-253
203110640,-3644,1704,15260,-24,-12,-166
203114197,-2900,492,15896,15,125,111
203117493,-4060,528,16268,-7,283,205
203120790,-3524,-1412,16456,-212,278,-234
203124520,-3108,708,15496,-41,266,-67
203127928,-2632,1304,16332,-234,-32,-245
203131547,-3404,108,15432,-11,-79,-20
203134930,-3360,1720,15148,57,-52,120
203138313,-3452,-1252,17148,-54,-150,-159
203142043,-3260,80,15332,-269,443,-103
203145513,-2472,1104,15500,-197,111,-489
203149157,-2600,1636,15888,-175,340,-79
203152762,-2584,1716,15596,-151,201,-107
203156357,-3424,-196,15828,-6,35,-60
203159654,-3900,1992,15872,77,157,318
203163037,-3704,-1692,16984,-250,68,-417
203166680,-3480,620,15392,-114,132,-154
203170237,-2968,1224,16204,-13,-240,-108
203173881,-2400,1592,15396,-41,-36,-29
203177375,-3592,1248,15044,-38,52,162
203180734,-3732,-1152,16880,39,167,-63
203184204,-3724,732,16184,-262,461,-71
203187674,-2948,-1036,16208,-283,301,-362
203191404,-2848,1276,15360,-146,269,-307
203195048,-2860,2636,15876,2,-121,132
203198431,-3200,460,15356,58,-108,139
203201837,-4120,1168,15176,102,18,105
203205232,-2760,-808,16780,-40,-85,-53
203208667,-2728,580,15464,-329,419,-286
203212224,-3136,1540,15484,-121,2,-397
203215694,-2588,1388,15772,-87,176,55
203219077,-3804,1228,15936,-67,258,137
203222547,-3880,-1320,16428,-19,180,12
203226017,-3500,492,15696,-132,335,-184
203229599,-3016,-276,16904,-278,39,-426
203233131,-3084,1016,15248,-117,17,-149
203236688,-3100,1896,15572,38,-199,30
203240071,-3784,-1008,16772,76,-146,127
203243627,-3628,428,15176,-183,316,78
203247011,-2032,236,15836,-159,16,-447
203250481,-3068,1056,15884,-280,448,-152
203254173,-2756,2068,15604,-298,273,-365
203257768,-2832,828,15300,81,109,68
203260978,-4048,1296,16108,10,138,198
203264361,-3848,-1524,16608,-36,35,-108
203267918,-3008,696,15316,-221,37,-240
203271387,-2632,320,16676,-125,-183,-345
203275031,-2796,1184,15664,-189,240,-219
203278699,-3536,1688,15160,-40,-5,171
203282058,-3672,-1488,17132,55,136,135
203285528,-3944,580,16144,-165,346,-5
203288911,-2500,188,15920,-187,258,-255
203292472,-3084,856,15724,-79,280,-202
203295938,-3248,2492,15896,-227,-44,-299
203299581,-3252,228,15524,117,14,215
203302901,-4224,528,15560,115,-157,129
203306383,-3400,-1080,16908,-53,-43,-166
203309991,-2620,828,15416,-231,354,-62
203313461,-2336,988,15804,-70,-61,-241
203316931,-2684,756,15716,-176,333,-116
203320488,-3100,1904,15436,-19,148,176
203323958,-4016,-1428,16464,108,101,138
203327539,-4136,528,16392,-81,243,-4
203330811,-2696,556,16288,-198,88,-344
203334281,-2712,1308,15032,-80,30,-91
203337665,-3400,1788,15552,89,-200,86
203341048,-3172,368,16276,55,8,124
203344171,-3584,160,15392,-197,259,-39
203347641,-2160,608,15772,-87,47,-327
203351024,-2744,1288,16024,-299,317,-163
203354716,-2668,2220,15568,-264,259,-346
203358311,-3116,712,15396,78,120,201
203361608,-4172,472,16204,-18,199,116
203364991,-3708,-1720,16984,-181,187,-338
203368721,-3012,972,15060,-40,84,9
203371844,-3156,1868,15664,-73,-184,-294
203375488,-2864,1068,15772,51,-87,131
203378895,-3608,1560,15192,-33,5,204
203382167,-3256,-1260,17064,-141,283,-323
203385898,-3928,580,16216,-198,297,-18
203389368,-2440,728,15804,-260,330,-302
203392924,-3168,800,15628,-94,146,-189
203396394,-3292,2532,15856,50,-1,233
203399691,-3928,-1800,16484,49,27,155
203403097,-4216,324,15812,-7,19,-18
203406287,-2792,176,16592,-88,-84,-282
203409789,-2588,1348,15616,-252,132,-304
203413397,-3584,1868,15376,31,88,227
203416694,-3756,-1676,17272,-16,139,87
203420164,-3916,860,16268,-113,359,57
203423547,-2736,-112,15896,-148,345,-177
203427215,-3232,612,15676,-117,180,-247
203430747,-2576,1236,16168,-249,80,-300
203434304,-3396,204,15300,100,-100,193
203437774,-3476,1864,15464,106,-112,80
203441244,-3356,-1200,16980,-104,-90,-168
203444974,-3464,-36,15372,-196,338,-122
203448531,-2204,984,15640,-198,189,-437
203452137,-2848,1512,15980,-225,270,-58
203455644,-3084,2088,15348,-216,314,-205
203459288,-3192,264,15420,80,0,146
203462411,-4040,732,16388,79,109,350
203465707,-3748,-1836,16964,-198,78,-316
203469351,-2720,1260,15004,-73,66,-111
203472821,-2904,704,16276,-74,-159,-227
203476381,-3048,684,16180,-144,3,-142
203479786,-3788,1392,15104,-65,128,244
203483231,-3316,-1280,16968,-149,142,-378
203486961,-3880,796,16228,-144,373,51
203490345,-2636,424,15744,-267,364,-303
203493901,-2836,1200,15612,-83,135,-227
203497458,-3432,2216,15740,-127,4,-39
203500841,-3664,-780,15808,32,-18,64
203504161,-4020,752,15564,-21,78,27
203507348,-2804,76,16444,-138,-87,-275
203510852,-2252,1500,15508,-166,221,-224
203514461,-3528,1544,15352,-37,-126,-47
203518018,-3080,340,15780,-7,260,42
203521228,-3988,504,16368,-11,250,167
203524611,-3572,-1272,16464,-199,276,-187
203528366,-3220,828,15768,-69,340,-32
203531724,-2612,1016,16012,-216,-16,-280
203535368,-3304,396,15232,-13,-20,-46
203538751,-3468,1656,15252,95,-204,83
203542134,-3412,-1044,16968,-101,3,-168
203545691,-3488,-92,15352,-238,398,-149
203549248,-2380,1264,15552,-196,70,-473
203552865,-2640,1644,15872,-189,339,-27
203556361,-3180,1892,15292,-219,217,-164
203560005,-3296,216,15704,139,61,202
203563301,-4236,332,16520,15,166,364
203566598,-3688,-1616,16788,-230,100,-377
203570328,-3560,632,15580,-75,127,-80
203573711,-2972,792,16556,-59,-242,-199
203577292,-3020,536,16028,-93,42,-122
203580651,-3808,1160,15072,-53,35,227
203584035,-3092,-1020,16660,-26,210,-74
203587591,-3520,628,15948,-271,357,-45
203591061,-2572,1052,15580,-332,323,-356
203594705,-2812,1112,15516,-5,145,-132
203598175,-3440,2292,15824,-139,-81,-44
203601755,-3776,-776,15872,94,73,116
203605028,-4064,236,15828,100,-58,136
203608411,-2860,-716,16784,-164,-34,-352
203612090,-2376,1316,15352,-246,375,-201
203615698,-2640,1452,15820,-7,-126,-75
203619168,-3116,-104,15936,-120,277,47
203622638,-3592,1316,15568,-26,224,144
203626112,-3440,-1180,16304,65,121,65
203629516,-3764,360,16256,-141,271,-121
203633048,-2608,1660,16004,-287,30,-449
203636605,-2496,1352,14956,-30,-8,36
203639902,-3868,1464,15236,70,-312,4
203643198,-3600,-552,16572,5,73,41
203646321,-3308,-16,15304,-217,265,-146
203649878,-2352,1416,15736,-209,157,-509
203653570,-2644,1444,15824,-188,218,-55
203657078,-2604,1368,15468,-209,226,-160
203660722,-3280,308,15852,89,103,216
203664018,-3960,-20,16344,47,95,317
203667228,-3572,-1056,16764,-253,202,-463
203670958,-2656,1224,15028,-115,11,-67
203674428,-2888,1056,16492,-16,-133,-194
203678096,-2452,1692,15392,-117,34,-120
203681628,-3600,1108,15028,-49,83,197
203685012,-3496,-964,16776,-39,309,-90
203688482,-3496,652,16128,-243,301,-104
203692038,-3056,-700,16136,-298,415,-359
203695682,-3008,1140,15468,0,1,-115
203698891,-3644,2144,15752,-74,-7,6
203702125,-3740,-832,15804,46,-44,87
203705398,-3852,212,15720,-53,107,-136
203708868,-2664,1124,16448,-186,19,-387
203712460,-2508,1280,15220,-127,68,-143
203715981,-2888,1508,15780,1,-3,-9
203719104,-3400,-308,16468,24,125,60
203722401,-3892,684,16228,-146,421,-3
203725784,-2452,532,15840,-253,306,-267
203729365,-3032,1092,15688,-71,189,-201
203732898,-2596,1972,15860,-161,-6,-105
203736454,-3616,-572,15692,47,-31,69
203739751,-4036,564,15400,150,-56,132
203743134,-3176,-1292,16880,-141,-77,-281
203746864,-3100,184,15520,-250,363,-208
203750421,-2488,1452,15580,-48,-86,-114
203754026,-2700,1468,15676,-134,230,1
203757361,-3260,1816,15332,-42,220,158
203760831,-3552,-372,15964,43,75,137
203764128,-3916,244,16272,-59,342,-50
203767511,-2584,1024,16192,-274,88,-417
203771068,-2684,1352,15084,-25,4,-24
203774364,-3432,1792,15368,106,-227,115
203777945,-3516,-216,16468,77,-39,106
203781304,-3476,100,15384,-207,301,-89
203784774,-2736,-964,16576,-182,86,-440
203788331,-2728,1436,15876,-232,387,-67
203791888,-2460,996,15668,-261,216,-262
203795444,-3284,624,15660,-31,40,-107
203798828,-3696,1788,15736,29,112,321
203802234,-3632,-1368,16600,-205,106,-341
203805941,-3880,512,15688,-62,153,-28
203809324,-2780,640,16496,-78,-216,-277
203812916,-2348,1676,15368,-110,144,-132
203816525,-3724,1508,15320,-30,-66,0
203819821,-3400,-348,16284,32,224,30
203823117,-3748,432,16092,-219,321,-25
203826612,-3352,-1196,16348,-263,331,-334
203830318,-3052,1020,15612,-124,349,-131
203833961,-2684,1720,16104,-157,-71,-128
203837605,-2848,1212,15276,-11,-50,21
203840988,-3528,1568,15272,107,-150,127
203844545,-3656,-736,16780,17,-50,46
203847841,-3240,304,15476,-273,350,-203
203851402,-2672,1260,15864,-184,31,-438
203855003,-2704,1588,15716,-156,305,-74
203858512,-2556,1584,15604,-206,204,-138
203862155,-3584,16,15840,120,142,254
203865452,-4044,1128,15928,25,242,298
203868835,-3320,-944,16860,-310,85,-461
203872391,-2948,996,15288,11,139,32
203875601,-3052,684,16404,-122,-149,-320
203879269,-3272,804,15984,-66,-22,-66
203882628,-3868,496,15300,-73,94,199
203885925,-2584,-416,16728,-194,173,-493
203889568,-3372,864,15872,-236,353,-20
203893038,-2568,1132,15580,-207,232,-286
203896682,-2864,1300,15380,2,131,-89
203899978,-3628,2052,15712,2,51,277
203903211,-3676,-1640,16860,63,83,69
203906484,-3804,420,15380,-70,31,-40
203909781,-2944,620,16504,-34,-98,-260
203913286,-2264,1500,15448,-165,40,-178
203916808,-3516,1448,15060,-55,75,201
203920191,-3224,-1280,16960,1,264,5
203923400,-3860,704,15968,-167,310,62
203926808,-2508,252,15676,-320,395,-433
203930341,-2992,1280,15460,-92,83,-230
203933811,-3400,2216,15720,49,122,332
203937194,-3688,-536,15720,31,-32,76
203940490,-3856,760,15624,18,101,25
203943700,-2776,100,16396,-139,-140,-330
203947344,-2300,1280,15324,-212,171,-241
203950987,-3692,1752,15452,-26,3,-136
203954420,-3108,340,15860,-24,150,51
203957667,-4040,676,16228,-108,388,78
203961050,-2584,0,15772,-182,254,-177
203964433,-3188,648,15564,-71,215,-261
203967903,-3000,2616,15628,-274,35,-321
203971460,-3332,284,15276,145,-93,150
203974843,-4096,732,15552,65,-91,98
203978078,-3440,-1292,16876,-113,-36,-177
203981783,-2752,872,15616,-268,282,-272
203985340,-2232,732,15692,-112,-65,-282
203988897,-2912,956,15548,-188,342,-87
203992367,-2960,2136,15348,-66,121,143
203995837,-3840,-1400,16388,45,62,156
203999220,-4036,688,16300,-30,244,94
204002540,-2756,188,16420,-263,62,-367
204005987,-2760,1300,15136,-156,103,-145
204009630,-3340,1900,15652,116,-242,95
204013104,-2936,504,15976,86,-36,125
204016432,-3508,424,15168,-168,212,4
204019693,-2020,236,15864,-134,88,-379
204023163,-2904,1204,16012,-305,367,-207
204026831,-2728,2176,15352,-273,217,-345
204030450,-2916,692,15316,73,138,87
204033660,-4004,1168,16200,26,-67,230
204037043,-3824,-1684,16552,-77,142,-145
204040687,-3144,816,15148,1,47,-17
204043810,-3076,1648,15984,-118,-119,-303
204047540,-2736,1168,15872,22,-78,43
204050836,-3452,824,15104,-75,3,135
204054148,-3488,-1276,16888,-55,236,-193
204057690,-3296,896,16064,-124,292,59
204061073,-2600,-32,15980,-288,371,-392
204064630,-2844,1044,15500,-132,192,-217
204068273,-3128,2460,15796,1,-61,171
204071570,-3996,-1564,16348,85,34,159
204074953,-4136,676,15764,99,-37,76
204078187,-2600,-224,16544,-187,35,-407
204081719,-2324,1516,15232,-261,201,-259
204085363,-3420,1720,15652,12,33,107
204088659,-3436,-1036,16800,-84,186,55
204092129,-3876,860,16080,-16,290,133
204095513,-2916,-616,15988,-116,327,-19
204099069,-3304,484,15896,-97,156,-245
204102563,-2824,2296,16244,-280,145,-370
204106183,-3068,800,15128,36,-114,106
204109566,-3880,1196,15504,122,-186,15
204113036,-3656,-1084,16924,-75,-46,-81
204116632,-3032,360,15488,-130,250,11
204119976,-2092,464,15980,-149,32,-387
204123446,-2620,1296,15684,-253,283,-143
204127114,-2768,2112,15500,-72,210,96
204130473,-3844,-1100,16576,41,12,97
204133769,-4132,1048,16080,52,281,217
204137153,-2968,-492,16512,-290,74,-438
204140709,-3084,884,15096,-107,50,-131
204144179,-3176,1764,15852,24,-223,-41
204147649,-2736,1216,15704,87,-91,100
204151036,-3568,568,15220,-158,221,58
204154464,-2320,-212,15980,-66,129,-240
204157973,-3128,960,15900,-300,468,-119
204161529,-2816,-208,15948,-332,277,-421
204165173,-2608,1564,15224,50,100,67
204168469,-4076,1072,16012,60,-61,284
204171853,-3948,-1764,16516,-72,94,-174
204175409,-3300,728,15252,21,103,92
204178644,-2740,-436,16544,-144,-115,-397
204182349,-2268,1764,15252,-261,282,-321
204185993,-3616,1656,15536,13,-94,213
204189376,-3700,-1324,17056,-27,192,52
204192846,-3804,968,15836,-118,334,97
204196229,-3040,-656,15912,-54,187,-83
204199699,-3268,456,15808,-190,273,-300
204203279,-2876,2612,15680,-270,6,-355
204206726,-3248,468,15200,129,-30,195
204210109,-3896,1176,15424,21,-172,28
204213493,-3788,-1240,17028,-17,-13,-116
204217171,-2824,672,15264,-197,327,-61
204220606,-2168,580,15620,-95,-43,-325
204224076,-2592,1316,15524,-294,439,-140
204227744,-3028,2128,15148,-61,109,93
204231103,-4008,-1104,16608,119,100,130
204234660,-4224,824,16304,-39,213,163
204238043,-2804,-248,16348,-142,84,-267
204241600,-3104,1072,15228,-145,56,-102
204245156,-3052,1644,15852,-76,-182,-309
204248800,-2720,1276,15516,23,25,108
204252145,-3652,440,15176,-20,-25,224
204255480,-3668,-1380,17048,-65,236,-241
204259123,-2980,1012,16036,-199,390,-4
204262593,-2452,304,15628,-277,292,-348
204266150,-2928,1136,15464,-117,226,-236
204269793,-3216,2636,15724,0,-56,223
204273090,-4020,-1812,16244,126,1,146
204276477,-4064,784,15632,55,-36,64
204279707,-2732,-304,16640,-129,-8,-337
204283240,-2424,900,15244,-287,225,-335
204286796,-3392,1904,15440,32,-8,230
204290093,-3648,-1372,17124,-49,241,52
204293563,-4080,900,16072,-71,285,92
204296859,-2892,-572,16044,-95,313,-50
204300329,-3400,292,15716,-135,150,-297
204303909,-2900,2720,15868,-247,81,-370
204307443,-3332,524,15216,89,-142,154
204310826,-3912,988,15340,83,-178,48
204314123,-3688,-1236,16984,-66,-32,-104
204317801,-2628,528,15140,-195,252,-43
204321236,-2080,548,15796,-117,69,-336
204324706,-2712,1456,15732,-70,154,50
204328114,-2900,2040,15352,-6,247,84
204331386,-3960,-1076,16476,-30,141,9
204334769,-3360,296,16144,38,213,172
204338065,-2916,-272,16604,-324,83,-449
204341622,-2932,1048,15144,75,-63,119
204345006,-3200,1684,15752,33,-110,-43
204348476,-3820,-816,16760,51,-130,12
204351907,-2980,196,15568,-157,311,63
204355242,-2144,-48,15916,-196,24,-457
204358712,-2652,1424,15828,-272,365,-144
204362356,-2636,1872,15324,-122,149,-29
204365912,-2932,1024,15284,38,-1,49
204369122,-4008,1336,15988,18,197,256
204372505,-3052,-840,16632,-262,97,-430
204376066,-3360,744,15460,-130,103,-117
204379643,-2924,1476,16272,-181,-136,-360
204383349,-2460,1440,15460,2,-20,66
204386559,-3452,884,14892,-59,23,195
204389855,-3704,-1432,17148,-13,209,-161
204393499,-3140,876,16068,-359,402,-158
204397056,-2900,-336,16056,-279,277,-356
204400699,-2732,1320,15408,-120,292,-257
204404366,-3052,2436,16008,-38,-113,116
204407899,-3152,500,15240,115,-40,161
204411283,-3976,736,15504,41,-18,91
204414492,-2564,-460,16632,-63,-55,-146
204418084,-2724,672,15160,-315,331,-299
204421606,-3296,1680,15588,-85,-90,-292
204425162,-2556,1232,15776,-77,270,73
204428570,-3872,1000,15952,-65,133,113
204432016,-3992,-1380,16648,-21,265,-17
204435573,-3456,412,15764,-42,235,115
204438956,-2816,-48,16580,-240,31,-415
204442426,-2904,868,15144,-110,117,-103
204445983,-3336,1768,15668,58,-256,5
204449279,-3640,-888,16884,-29,72,-12
204452711,-3660,292,15280,-157,165,59
204456046,-1944,364,15692,-147,139,-453
204459602,-2924,1296,15872,-273,307,-111
204463246,-2764,1896,15188,-102,181,-12
204466803,-3004,984,15544,21,100,46
204470012,-4124,1032,16172,34,181,235
204473395,-3248,-780,16736,-75,161,-180
204476977,-3092,812,15368,-137,-8,-142
204480422,-3200,1552,16076,-95,-37,-297
204483979,-2736,1232,15480,-5,-90,28
204487276,-3488,600,15344,4,13,200
204490399,-2476,-324,16036,-72,241,-185
204493955,-2944,892,16028,-304,372,-191
204497512,-2640,60,15968,-326,365,-360
204500986,-2924,996,15328,19,8,12
204504041,-3904,1632,15864,17,208,284
204507401,-3304,-1276,16772,-64,44,-67
204510872,-3476,772,15400,-100,112,-115
204514428,-2712,-288,16552,-181,-96,-353
204518110,-2456,1532,15376,-42,-19,-32
204521542,-3268,1700,15484,-7,18,162
204524838,-3520,-1212,16932,-10,170,-99
204528420,-4140,796,16020,-65,395,147
204531778,-2884,-504,15916,-269,271,-412
204535422,-3256,576,15792,-150,253,-241
204538979,-3060,2276,16120,-45,-70,59
204542362,-3032,848,15296,81,-84,131
204545658,-3960,1104,15272,66,-27,92
204548955,-2736,-536,16688,-159,-61,-348
204552659,-2684,620,15168,-236,321,-249
204556155,-3076,1576,15672,-164,-23,-355
204559798,-2420,1372,15756,-67,256,71
204563182,-3936,1016,15812,-43,151,147
204566652,-3784,-1264,16512,-27,214,-31
204570209,-3608,388,15828,-6,283,160
204573505,-2912,-200,16432,-281,65,-398
204577086,-2924,980,15132,-92,76,-140
204580445,-3184,1860,15772,52,-240,1
204583741,-3864,-1044,16888,50,-5,38
204587038,-2932,220,15464,-184,267,-14
204590508,-2060,436,15800,-163,51,-412
204593978,-2736,1256,15848,-273,442,-168
204597622,-2640,2152,15276,-88,112,35
204601008,-3600,-876,16224,55,136,107
204604411,-4180,1148,16100,39,127,245
204607771,-2972,-692,16848,-270,185,-425
204611415,-3220,848,15212,-174,45,-153
204614885,-2984,1624,16020,-124,-145,-316
204618650,-2768,1324,15588,1,-75,50
204621825,-3620,780,15028,-137,186,128
204625295,-3636,-1456,17184,-28,284,-226
204628963,-2996,956,16000,-118,291,49
204632322,-2720,-72,15796,-283,390,-400
204635878,-2672,1064,15296,-151,159,-252
204639522,-3076,2544,15764,33,-19,197
204642905,-4020,-1676,16220,83,-36,144
204646375,-3848,944,15468,56,-49,83
204649585,-2712,-416,16508,-182,-41,-384
204653277,-2476,900,15420,-264,174,-324
204656785,-3496,1752,15428,-67,9,-250
204660168,-2776,868,15728,-61,149,34
204663465,-4072,896,16208,-29,350,177
204666848,-3040,-744,16144,-115,256,-74
204670405,-3344,472,15916,-108,224,-206
204673962,-2636,276,16400,-303,110,-382
204677543,-3068,904,15172,109,-124,175
204680988,-3288,1692,15664,108,-112,80
204684458,-3612,-1124,16832,-62,-49,-95
204688015,-3648,316,15180,-164,332,-4
204691398,-2040,436,15752,-107,-74,-383
204694955,-2812,1328,15856,-265,345,-150
204698598,-2832,1984,15300,-246,330,-271
204702265,-3136,540,15580,72,5,122
204705365,-4128,944,16280,-23,287,141
204708748,-2820,-364,16480,-138,35,-223
204712305,-2968,992,15416,-98,102,-160
204715775,-3268,1836,15844,-139,-114,-325
204719540,-2780,1032,15796,-135,40,-218
204723062,-3812,1516,15184,-71,137,236
204726557,-3388,-1420,17156,-22,143,8
204729915,-4076,592,16192,-147,420,7
204733212,-2672,416,15840,-241,258,-349
204736769,-3044,864,15512,-87,147,-201
204740239,-3336,2524,15740,-35,10,186
204743622,-3936,-1732,16476,103,-66,163
204747178,-4100,432,15688,-4,83,32
204750302,-2540,148,16492,-157,-130,-346
204753993,-2464,1048,15392,-191,211,-262
204757589,-3392,1844,15228,-92,-36,-171
204761145,-2952,728,15772,43,190,117
204764442,-4032,496,16332,-11,205,198
204767825,-3692,-1428,16496,-168,309,-176
204771555,-3272,716,15680,-23,278,30
204774852,-2652,796,16528,-234,15,-316
204778346,-3324,664,15308,-48,40,-92
204781618,-3356,1764,15128,110,-241,114
204785175,-3444,-1360,16736,-110,75,-227
204788819,-3520,376,15360,-199,244,-84
204792289,-2272,712,15668,-95,14,-280
204795672,-2600,1536,15904,-261,321,-139
204799315,-2992,1968,15372,-180,191,-187
204802982,-3188,160,15840,70,146,142
204806255,-4056,652,16316,23,56,259
204809465,-2712,380,16352,-183,155,-307
204813022,-2824,1068,15088,-99,-23,-150
204816579,-2664,1064,16420,-64,-158,-238
204820257,-3312,360,16028,-110,79,-67
204823605,-3644,1344,15144,-61,39,159
204827013,-3088,-1224,16876,-184,227,-363
204830719,-3744,460,16136,-246,357,-110
204834276,-2576,1048,15556,-228,318,-321
204837919,-2892,1052,15552,-82,101,-191
204841476,-2888,1980,16236,-125,-77,-100
204845119,-3628,-572,15728,86,53,172
204848416,-3656,1228,15284,115,-148,106
204852021,-3108,-972,16704,-165,71,-319
204855529,-2964,244,15560,-272,254,-230
204859086,-2904,1504,15692,-159,22,-385
204862643,-2532,1532,15600,-145,262,-9
204866113,-3492,1744,15540,-115,127,-29
204869670,-3700,-484,16204,31,197,158
204873053,-3804,-4,16340,16,146,243
204876266,-2524,1792,16044,-279,162,-460
204879931,-2916,1080,15052,20,-126,31
204883289,-3204,1356,16224,15,-183,-122
204886846,-3552,-508,16772,36,-108,119
204890321,-3848,540,15328,-121,177,125
204893786,-2484,-352,16228,-178,162,-441
204897430,-3092,804,15888,-268,293,-155
204900990,-2628,1900,15188,-321,360,-372
204904653,-2816,1072,15484,-9,57,-49
204907926,-3856,1812,15904,-22,-78,129
204911396,-3924,-1396,16384,-73,109,-18
204914953,-3468,516,15420,74,-77,78
204918163,-2668,-352,16620,-144,5,-400
204921668,-2324,1592,15412,-87,-49,-50
204925103,-3592,1200,15160,19,29,138
204928424,-3728,-1084,16960,-24,182,-68
204931956,-3440,820,16220,-66,270,131
204935339,-3064,-648,16012,-264,400,-326
204938983,-2772,1064,15292,-169,156,-252
204942626,-2652,2488,15736,-17,25,84
204945923,-3932,-1324,16116,69,-111,153
204949480,-3808,1136,15324,109,-25,118
204952999,-2836,-836,16680,-30,40,-54
204956333,-2860,476,15416,-301,251,-303
204959889,-2916,1692,15560,-154,93,-385
204963446,-2640,1360,15640,-85,122,66
204966830,-3724,1352,15744,-57,158,90
204970213,-3896,-1236,16672,-50,167,29
204973683,-3712,400,16000,-99,261,-112
204977177,-2924,-552,16716,-284,126,-437
204980796,-3036,1244,15092,-138,15,-176
204984353,-3052,1708,15708,62,-140,-27
204987823,-3716,-856,16936,36,-142,87
204991206,-3696,584,15284,-139,291,63
204994590,-2240,-128,15840,-175,-17,-435
204998233,-3020,1076,16008,-293,397,-152
205001900,-2848,184,15788,-317,386,-343
205005433,-2912,932,15388,28,1,42
205008470,-4008,1560,16036,28,220,224
205011853,-3916,-1768,16596,-44,9,-101
205015323,-3272,648,15396,-144,141,-198
205018880,-2620,0,16508,-196,-88,-341
205022298,-2616,1368,15476,46,-53,48
205025559,-3608,832,15160,-30,77,150
205028880,-3672,-1176,17024,-33,155,-154
205032499,-3176,868,15828,-325,416,-181
205036056,-2820,-380,15904,-314,311,-365
205039700,-2908,1176,15392,-106,208,-276
205043343,-2952,2584,15948,-32,-96,105
205046813,-3264,468,15160,97,-110,176
205050196,-3848,760,15336,55,16,58
205053422,-2724,-268,16588,-162,-124,-358
205057050,-2660,756,15436,-286,323,-281
205060606,-3272,1684,15496,-122,-63,-318
205064250,-2636,1256,15644,-22,234,104
205067720,-3016,2080,15232,-57,162,138
205071190,-3908,-1292,16744,-74,225,-52
205074747,-4072,568,16436,-41,324,91
205078068,-2680,296,16300,-271,29,-393
205081513,-3080,820,15284,-74,56,-87
205084810,-3276,2016,15548,94,-247,76
205088193,-3736,-1208,16872,-7,45,-75
205091576,-3596,332,15260,-172,216,21
205094959,-2192,180,15920,-143,69,-391
205098429,-2652,1448,15640,-312,383,-187
205102096,-2804,1948,15288,-43,122,77
205105456,-3748,-1072,16420,57,117,98
205108839,-4172,1048,16296,29,117,198
205112222,-2948,-428,16412,-281,148,-433
205115866,-2924,1000,15240,-133,14,-146
205119423,-3108,1608,16052,-84,-157,-281
205123105,-2864,1040,15916,12,-50,97
205126366,-3628,464,15428,-29,29,186
205129684,-3528,-1360,16852,-89,238,-248
205133303,-2848,1088,16028,-181,329,11
205136773,-2812,512,15772,-261,358,-363
205140330,-2920,1000,15472,-121,94,-261
205143886,-3252,2664,15616,8,-7,240
205147096,-3976,-1972,16596,-88,45,-162
205150653,-4152,624,15532,19,1,36
205153737,-2640,128,16380,-160,-62,-356
205157246,-2696,1344,15428,-208,130,-220
205160889,-3460,1564,15524,-44,79,168
205164273,-3664,-1192,16956,-35,136,65
205167743,-4004,504,16224,-95,450,66
205171039,-2564,100,15772,-316,258,-392
205174596,-3156,560,15720,-92,185,-206
205178090,-3016,2636,15660,-268,53,-304
205181623,-3336,392,15188,145,-111,193
205185092,-4120,516,15732,122,-135,134
205188563,-3440,-1268,17048,-123,-8,-222
205192206,-2392,880,15372,-184,367,-105
205195763,-2284,976,15584,-90,-91,-264
205199233,-2664,1576,15996,-195,291,-79
205202813,-2972,2104,15280,-58,158,141
205206260,-3220,152,15528,66,63,131
205209469,-4216,708,16296,-29,244,65
205212766,-2688,268,16464,-243,43,-371
205216236,-2968,1276,14980,-100,68,-114
205219793,-3268,1892,15752,113,-284,61
205223298,-3280,464,16192,98,0,183
205226389,-3728,84,15420,-201,256,-38
205229793,-2056,636,15716,-111,42,-333
205233239,-2812,1336,15916,-291,375,-149
205236882,-2776,2100,15392,-296,221,-329
205240526,-3056,1072,15204,44,110,179
205243909,-4344,352,16484,109,-34,362
205247292,-3748,-1764,16848,-233,224,-350
205251026,-2892,1028,15052,-21,64,4
205254281,-2636,368,16392,-92,-101,-332
205257789,-2780,1108,15628,-172,143,-177
205261433,-3700,1444,15152,-44,-3,222
205264816,-3592,-1408,17140,32,221,65
205268199,-3804,664,16360,-179,342,2
205271495,-2552,380,15688,-261,356,-313
205275052,-2980,984,15552,-91,122,-245
205278547,-3276,2628,15652,16,-9,238
205281819,-3952,-1820,16568,102,7,173
205285202,-3996,616,15744,37,29,17
205288325,-2632,-8,16404,-165,-19,-345
205291795,-2588,1452,15836,-222,99,-281
205295352,-3816,1540,15400,-26,121,194
205298822,-3612,-1372,17016,-56,147,29
205302315,-4000,856,16152,-44,326,113
205305675,-2800,-436,15944,-193,316,-157
205309319,-3276,808,15712,-91,164,-235
205312789,-3036,2380,15908,-234,141,-323
205316432,-3140,536,15236,70,-132,138
205319815,-3816,872,15352,85,-68,90
205323029,-3752,-1380,16880,-89,-83,-125
205326712,-2572,880,15388,-164,308,-64
205330139,-2296,768,15636,-164,-1,-299
205333609,-2772,1060,15436,-191,239,-107
205337252,-2852,2124,15404,-81,214,131
205340722,-3884,-1260,16544,25,58,125
205344105,-4312,708,16112,37,259,147
205347402,-2824,60,16492,-274,59,-402
205350785,-2952,1084,15176,-69,43,-106
205354303,-3200,1680,15664,16,-213,-16
205357725,-3040,1016,15916,87,-122,109
205361195,-3528,364,15328,-212,304,15
205364578,-2040,276,15692,-118,138,-303
205368135,-2932,1136,16036,-289,409,-167
205371778,-2396,620,15872,-321,267,-349
205375335,-2992,680,15364,51,69,77
205378483,-3920,1284,16112,-5,22,237
205381755,-4060,-1828,16684,-91,57,-159
205385312,-2932,928,15336,-171,106,-211
205388868,-2708,324,16372,-109,-187,-317
205392512,-2784,1184,15560,-175,174,-206
205396155,-3484,1744,15504,-55,-3,176
205399539,-3632,-1628,17080,38,150,117
205403033,-4064,696,16332,-135,363,33
205406392,-2556,-16,15960,-173,256,-210
205409949,-3192,616,15724,-114,254,-242
205413505,-3168,2584,15888,-258,19,-292
205417062,-3504,276,15276,123,-25,215
205420445,-4048,568,15508,74,-135,109
205423829,-3424,-1280,16760,-86,23,-185
205427427,-2796,848,15428,-174,305,-97
205430855,-2260,1008,15684,-135,6,-282
205434325,-2812,860,15528,-165,325,-88
205437795,-3132,1940,15436,-32,123,165
205441265,-3580,-1256,16400,18,165,105
205444735,-4220,456,16156,-21,218,89
205448032,-2744,424,16428,-258,88,-387
205451550,-2816,1180,15028,-99,17,-135
205454972,-3240,1984,15440,98,-240,112
205458442,-3240,284,15936,82,-11,144
205461738,-3296,440,15448,-163,226,-59
205465208,-2156,464,15784,-141,222,-349
205468765,-2628,1384,16064,-279,274,-175
205472409,-2488,1228,15756,-203,256,-253
205476055,-3096,432,15628,14,89,69
205479200,-4204,1088,16268,50,-33,277
205482558,-3816,-1908,16704,-166,166,-228
205486288,-4036,460,15596,-45,-4,-68
205489585,-2772,468,16420,-88,-57,-291
205493055,-2868,1040,15556,-179,47,-201
205496612,-3476,1548,15364,1,116,146
205499908,-3432,-1292,16976,-102,168,-246
205503663,-3968,408,16272,-124,343,-10
205507109,-2440,616,15816,-290,415,-285
205510665,-3056,932,15596,-73,99,-203
205514049,-3288,2668,15684,-157,48,-197
205517605,-3552,-216,15588,76,-73,139
205520989,-4108,480,15720,121,-124,119
205524459,-3160,-1160,16588,-136,-49,-290
205528230,-3320,-4,15628,-207,272,-180
205531659,-2412,1400,15540,-85,-2,-153
205535129,-2728,1464,15752,-121,164,-5
205538599,-3556,1756,15452,-22,261,209
205542069,-3832,-1556,16640,37,45,122
205545452,-3976,304,16364,-92,361,-45
205548835,-2660,1024,16308,-256,97,-444
205552453,-2692,1460,14808,-27,-10,-14
205555862,-3364,1768,15152,-58,-169,-91
205559419,-3684,-308,16268,100,-26,94
205562802,-3360,124,15456,-89,202,150
205566185,-2660,-912,16368,-190,98,-437
205569742,-2712,1548,15928,-206,340,-104
205573386,-2388,1672,15700,-203,179,-162
205577054,-2924,1136,15248,30,105,-75
205580412,-3780,1980,15936,17,34,272
205583709,-3608,-1668,16796,18,15,32
205587005,-3644,744,15516,-128,83,-140
205590475,-2916,660,16368,-28,-166,-185
205594032,-2312,1708,15484,-130,90,-121
205597589,-3708,1304,14992,-72,38,244
205600976,-3608,-1056,16684,-1,314,-52
205604467,-3644,728,16212,-244,316,-108
205607999,-3144,-1032,16364,-289,353,-365
205611729,-2988,1316,15384,-127,285,-222
205615373,-2812,1912,15928,-89,-61,-11
205618843,-3044,1124,15252,83,-60,133
205622226,-3876,828,15404,102,-69,128
205625609,-2808,-524,16468,-24,-22,-121
205629207,-2836,540,15308,-301,288,-250
205632723,-2952,1484,15588,-148,6,-379
205636193,-2624,1400,15580,-152,280,-42
205639749,-3580,1552,15644,-113,96,54
205643133,-3936,-1072,16428,22,261,102
205646603,-3540,92,16304,-15,171,160
205649899,-2752,-120,16572,-270,116,-413
205653591,-3048,888,15132,-136,47,-125
205657013,-3128,1836,15948,20,-159,-15
205660483,-3860,-948,16804,96,-89,156
205663866,-3580,448,15300,-166,214,64
205667249,-2200,148,15816,-169,124,-439
205670806,-3080,996,15700,-305,343,-152
205674363,-2556,1848,15568,-87,215,-4
205677770,-2952,984,15288,9,50,82
205680782,-4168,1060,16168,53,150,231
205684165,-3080,-784,16724,-290,103,-418
205687809,-3212,768,15400,-131,21,-153
205691279,-2976,1580,16076,-12,-130,-68
205694836,-2540,1300,15520,5,-111,68
205698132,-3724,792,15112,-108,264,112
205701626,-3488,-1140,16940,-76,175,-151
205705246,-3208,688,15836,-301,458,-198
205708802,-2600,104,15800,-336,367,-416
205712359,-2876,1072,15276,-82,80,-172
205715829,-3160,2412,15996,-51,65,103
205719212,-3836,-1440,16228,-11,4,5
205722422,-3456,416,15344,66,87,58
205725545,-2728,-100,16480,-169,-148,-359
205729317,-2556,1552,15696,-238,239,-248
205732919,-3520,1616,15552,-51,2,143
205736215,-3616,-1192,17000,25,278,-92
205739685,-3928,760,16200,-90,337,92
205742982,-2832,-388,16156,-326,345,-359
205746625,-3232,448,15696,-62,208,-249
205750095,-2924,2548,15856,-49,-86,96
205753527,-3380,616,15304,135,-84,201
205756862,-3784,852,15548,14,-24,13
205760072,-2920,-672,16568,-105,-74,-283
205763715,-2620,440,15512,-358,340,-319
205767272,-3412,1828,15780,-116,-61,-321
205770915,-2676,1080,15648,-67,297,69
205774299,-3912,1180,16064,-17,90,141
205777706,-3996,-1588,16684,-62,332,-53
205781239,-3436,640,15852,-48,208,84
205784535,-2788,-12,16484,-223,68,-346
205788005,-3064,1024,15160,21,-95,99
205791301,-3164,1936,15380,95,-233,108
205794772,-3844,-1320,16960,-64,24,-90
205798242,-2780,540,15644,-198,219,14
205801649,-2200,280,15828,-112,89,-368
205805095,-2520,1480,15580,-294,323,-181
205808738,-2784,2204,15552,-35,184,110
205812208,-3888,-1152,16636,15,109,114
205815678,-4116,988,16108,14,188,190
205818975,-3096,-400,16508,-111,184,-250
205822618,-2936,1040,15204,-149,-27,-165
205826265,-2784,416,16560,-81,-113,-266
205829860,-2868,1160,15688,25,-148,57
205833202,-3676,1668,15088,-42,20,210
205836585,-3532,-1528,17176,-142,223,-288
205840315,-3864,924,16032,-167,301,11
205843699,-2632,-132,15912,-273,393,-369
205847342,-3136,796,15684,-170,166,-307
205850902,-3408,2660,15524,-145,-70,-123
205854591,-3620,-600,15536,28,50,131
205857839,-4140,796,15656,105,-170,103
205861309,-3320,-1288,16928,-119,31,-248
205864952,-2288,1296,15224,-305,299,-173
205868596,-2484,1192,15804,-6,-20,-130
205872066,-2704,1564,15832,-218,333,-68
205875623,-3380,1764,15544,60,113,182
205879030,-3520,-352,16160,18,262,133
205882389,-4096,440,16088,-44,145,-4
205885686,-2664,852,16452,-236,104,-315
205889242,-2788,1424,15164,-87,-74,-51
205892712,-3496,1636,15396,182,-143,183
205896269,-3416,-344,16608,16,6,41
205899392,-3488,148,15468,-212,290,-98
205902887,-2212,1012,15816,-208,208,-432
205906506,-2760,1464,15980,-208,268,-88
205910062,-2452,1784,15524,-156,234,-155
205913706,-3280,-64,15696,-48,71,-73
205917002,-3908,2036,15992,95,136,312
205920386,-3492,-1668,16888,-246,86,-372
205924029,-3700,608,15392,-103,49,-138
205927522,-2996,928,16328,-41,-158,-144
205931091,-2288,1652,15696,-87,-59,-87
205934526,-3508,1340,15252,-112,185,209
205938083,-3444,-904,16540,5,193,-55
205941379,-3636,404,16140,-231,441,-100
205944936,-2988,-800,16092,-327,357,-425
205948579,-3000,1148,15224,-100,173,-191
205952272,-2804,2160,15820,-122,-8,-9
205955606,-3720,-856,15848,37,-131,101
205959076,-3712,1136,15284,115,-7,107
205962459,-2824,-744,16456,-179,-73,-311
205966103,-2852,548,15412,-235,296,-263
205969659,-3144,1624,15648,-185,51,-364
205973216,-2520,1440,15552,-83,191,33
205976624,-3880,1252,15872,-27,175,113
205980070,-3608,-1148,16540,-74,197,-8
205983540,-3564,292,15932,75,247,214
205986836,-3076,-352,16816,-267,10,-438
205990393,-3064,1124,15212,60,-24,101
205993776,-3160,1708,15804,1,-200,3
205996986,-3880,-1040,16968,49,-24,-6
206000369,-3020,376,15708,-284,283,-247
206003950,-2168,60,15684,-202,-2,-411
206007309,-2496,1616,15664,-141,273,-8
206010779,-2628,2272,15524,-69,78,111
206014162,-3828,-1100,16420,-10,253,25
206017632,-4144,1196,16256,0,182,197
206020929,-3128,-760,16600,-236,67,-399
206024486,-2852,1256,15088,-173,159,-221
206028152,-3012,1744,16032,57,-261,-1
206031547,-2720,1156,15828,57,-71,102
206034895,-3560,608,15176,-161,182,81
206038279,-2184,-160,15932,-92,215,-264
206041836,-3312,1008,16152,-287,423,-106
206045479,-2488,1488,15708,-289,300,-421
206049123,-2680,1636,15020,-7,168,23
206052521,-3240,2616,15516,105,-167,310
206055976,-3832,-1784,16620,-111,238,-183
206059706,-4080,976,15488,31,-10,54
206062916,-2816,-420,16568,-120,-74,-332
206066559,-2380,1188,15432,-322,298,-333
206070203,-3604,1636,15368,-8,-140,-193
206073760,-2744,752,15632,-23,267,43
206077081,-3896,892,16040,-65,241,127
206080439,-3860,-1396,16624,-45,312,-26
206083996,-3096,368,15900,-194,191,-321
206087553,-2468,1404,16272,-205,4,-297
206091023,-3440,184,15532,82,-109,194
206094406,-3544,1980,15436,80,-204,67
206097789,-3460,-1252,16916,-95,26,-145
206101350,-3680,76,15552,-199,251,-104
206104841,-2120,704,15892,-71,26,-295
206108199,-2712,1204,15556,-301,329,-137
206111843,-2904,1972,15364,16,159,155
206115226,-3976,-1236,16688,47,97,144
206118609,-4100,416,16340,-20,248,57
206121906,-2748,348,16444,-279,34,-380
206125376,-2716,1208,15088,-91,-38,-100
206128956,-3388,1776,15548,77,-143,31
206132355,-3092,740,15936,46,-89,116
206135612,-3656,216,15340,-140,305,48
206138996,-2068,488,15752,-205,220,-398
206142552,-2892,1320,15844,-218,320,-105
206146196,-2596,752,15752,-264,340,-301
206149752,-2844,724,15432,53,19,112
206153011,-4280,980,16348,27,64,286
206156172,-3828,-1912,16720,-115,32,-217
206159815,-2852,1092,15044,-114,137,-174
206163459,-2860,304,16576,-101,-155,-230
206167103,-2304,1256,15452,-209,143,-241
206170746,-3744,1636,15084,-22,84,238
206174129,-3168,-128,16112,5,143,58
206177364,-3952,680,16424,-149,386,-1
206180722,-2628,452,15904,-288,243,-354
206184279,-2984,756,15596,-97,180,-240
206187749,-3308,2680,15656,26,-64,258
206191132,-3396,-188,15648,111,-36,177
206194602,-4128,360,15820,-23,65,-28
206197899,-2720,252,16468,-128,-70,-264
206201480,-2396,1208,15380,-247,241,-257
206205099,-2656,1176,15908,-82,-99,-168
206208656,-3032,532,15552,12,283,83
206211865,-3992,496,16268,-2,160,174
206215162,-3700,-1496,16652,-167,343,-201
206218892,-3160,820,15436,-84,285,-48
206222276,-2620,988,16348,-204,-29,-261
206225832,-3244,472,15352,-74,32,-24
206229152,-3392,1704,15216,89,-207,93
206232547,-3324,-1040,16752,-96,48,-195
206236069,-3344,88,15556,-237,265,-122
206239539,-2256,1056,15684,-70,14,-252
206243009,-2772,1608,15736,-212,283,-74
206246565,-2908,1900,15456,-10,169,115
206250036,-3364,492,15520,48,158,217
206253381,-4064,72,16416,-38,192,-51
206256629,-2612,1016,16288,-239,227,-396
206260272,-2716,1196,15104,-69,-73,-64
206263742,-3316,2056,15364,-12,-125,-173
206267386,-3240,216,16148,44,-70,176
206270682,-3712,64,15392,-38,58,210
206273892,-2920,-1056,17004,-195,228,-428
206277647,-2888,1280,15800,-235,311,-87
206281179,-2540,1440,15488,-200,324,-243
206284822,-2948,1140,15248,-64,47,-115
206288292,-3680,2160,15796,81,79,292
206291589,-3624,-1836,16728,37,59,113
206294972,-3920,352,15632,-45,68,-97
206298269,-2884,800,16420,-65,-137,-234
206301850,-2360,1416,15304,-163,20,-177
206305382,-3508,1512,15104,-16,126,195
206308852,-3328,-508,16432,33,154,25
206312148,-3704,636,16248,-198,433,-43
206315619,-3408,-1256,16400,-323,348,-333
206319349,-3124,1144,15272,-33,138,-155
206322906,-2552,1904,16136,-143,34,-132
206326486,-3524,-444,15868,20,-152,77
206329846,-3648,1328,15048,144,-22,143
206333350,-2940,-920,16576,-23,-64,13
206336699,-3132,144,15720,-228,330,-213
206340255,-2836,1484,15636,-48,-90,-105
206343812,-2480,1688,15680,-127,209,3
206347196,-3444,1540,15624,-46,268,220
206350666,-3764,-796,16200,11,136,75
206354010,-3872,328,16248,-89,308,-97
206357345,-2568,1408,16288,-280,74,-426
206360902,-3008,1344,14980,12,7,6
206363938,-3544,1524,15264,114,-203,167
206367495,-3692,-584,16620,50,-10,26
206370792,-3368,128,15448,-254,284,-166
206374348,-2432,1184,15564,-200,56,-445
206377929,-2584,1660,15664,-219,349,-94
206381462,-2460,1776,15648,-172,101,-121
206385105,-3384,16,15660,93,220,210
206388315,-4076,164,16372,50,88,286
206391525,-3304,-1088,16940,-255,156,-389
206395255,-2868,1084,15088,-140,91,-133
206398812,-2864,1312,16372,1,-238,-158
206402306,-3504,124,16276,-61,75,-30
206405578,-3768,1048,15192,-65,60,164
206408962,-2708,-772,16624,-159,241,-371
206412605,-3480,400,16000,-304,364,-116
206416162,-2432,1564,15816,-316,338,-389
206419805,-2836,1148,15440,-31,165,-42
206423275,-3776,2112,15764,-83,-103,26
206426769,-3740,-1088,16132,45,80,83
206430042,-3828,328,15780,63,-85,114
206433377,-2680,-496,16416,-114,-40,-335
206436982,-2344,1448,15264,-141,-12,-114
206440625,-3132,1544,15620,4,-69,52
206443835,-3388,-588,16444,-21,235,-8
206447218,-3776,1192,15812,12,193,204
206450602,-3212,-992,16284,-340,427,-371
206454294,-3580,428,15828,-103,188,-158
206457802,-2552,2004,16036,-114,29,-73
206461272,-3088,1120,15208,5,-73,95
206464482,-3684,1256,15272,132,-77,98
206467865,-3088,-792,16584,-187,-24,-295
206471508,-3100,156,15660,-273,309,-258
206475065,-2920,1608,15688,-170,133,-489
206478733,-2580,1440,15604,-117,176,7
206482092,-3568,1536,15676,-46,166,93
206485475,-3728,-948,16324,-28,182,53
206488858,-3836,384,16116,66,163,245
206492159,-3216,-848,16632,-274,154,-430
206495798,-2812,1408,14908,-4,-40,53
206499095,-2960,1704,15676,96,-194,-31
206502589,-3592,-644,16788,7,-41,45
206505775,-3444,116,15504,-228,378,-196
206509331,-2248,-356,16264,-216,77,-499
206512888,-2616,1548,15848,-273,357,-136
206516532,-2676,1836,15468,-136,184,-67
206520088,-2756,1072,15296,24,25,20
206523298,-4132,1540,15996,42,257,310
206526705,-3476,-1292,16948,-261,63,-394
206530325,-3300,732,15252,-102,120,-139
206533916,-3052,1208,16040,-163,-69,-369
206537525,-2420,1656,15516,-32,-34,-31
206540995,-3308,1936,15460,16,24,213
206544292,-3780,-1384,16916,-52,219,-144
206547935,-3984,956,16044,-57,334,117
206551322,-2864,-524,16176,-313,298,-391
206555022,-3264,544,15676,-130,235,-253
206558519,-2816,2460,15820,-48,-86,103
206561989,-3176,652,15376,69,-64,158
206565285,-4236,788,15596,59,0,98
206568321,-2624,-480,16612,-144,-81,-356
206571965,-2664,552,15488,-308,347,-303
206575522,-3216,1856,15488,46,-123,142
206579016,-2796,992,15524,-57,240,59
206582288,-3848,1084,15984,-42,247,113
206585758,-3176,-1064,16188,-5,197,39
206589141,-3636,268,16044,-169,227,-265
206592698,-2684,2256,16036,-264,41,-426
206596255,-2972,884,15196,58,-15,87
206599465,-3736,1184,15192,112,-108,97
206602959,-3872,-1128,17068,-5,29,-27
206606318,-2856,324,15464,-294,259,-293
206609874,-2088,392,15536,-139,41,-395
206613345,-2580,1232,15600,-77,191,50
206616728,-2848,2176,15496,-57,96,81
206620024,-3720,-1104,16488,-56,230,20
206623494,-3544,380,15736,26,194,155
206626814,-3184,-532,16912,-264,143,-392
206630434,-2848,1188,15112,-175,7,-210
206633943,-3036,1968,15716,89,-198,40
206637288,-3752,-1036,16872,-34,-48,3
206640671,-3700,528,15212,-138,212,103
206644141,-1996,-20,15904,-198,116,-474
206647698,-3032,1208,15872,-285,302,-135
206651390,-2768,1796,15404,-240,324,-316
206654985,-2900,968,15352,8,49,12
206658021,-4196,1136,16216,84,199,272
206661404,-3172,-880,16920,-128,115,-152
206665048,-3032,692,15112,-124,64,-177
206668518,-2632,204,16656,-135,-65,-336
206672074,-2740,1252,15640,12,-115,83
206675458,-3676,912,15156,-13,132,176
206678865,-3724,-1460,17036,-42,134,-176
206682484,-3984,428,16108,-88,399,29
206685781,-2684,172,15796,-301,271,-367
206689338,-2836,984,15404,-86,155,-205
206692808,-3092,2580,15740,-59,-45,143
206696277,-3840,-1632,16300,84,-86,194
206699748,-4172,488,15628,47,65,59
206702895,-2604,-100,16588,-141,-130,-341
206706601,-2420,860,15284,-221,236,-236
206710158,-3504,1740,15340,-136,-30,-250
206713801,-2628,912,15600,-9,191,69
206717011,-4012,904,16080,-134,309,115
206720481,-3788,-1320,16540,-66,190,-53
206724038,-3264,488,15864,-186,285,-326
206727617,-2732,1120,16304,-223,-75,-299
206731238,-3292,236,15512,-45,15,-28
206734569,-3284,2072,15384,49,-199,44
206737918,-3668,-1332,17088,-23,7,-91
206741301,-3496,-24,15584,-252,325,-114
206744858,-2204,936,15564,-57,-68,-274
206748328,-2676,1392,15884,-276,429,-118
206752019,-2968,2044,15396,-217,168,-278
206755615,-3060,720,15468,68,177,161
206758911,-4256,172,16276,-31,199,61
206762208,-2784,568,16312,-161,142,-329
206765764,-2960,1060,14964,-108,7,-63
206769148,-3208,1908,15564,-78,-164,-269
206772791,-3136,1008,15812,79,-26,162
206776178,-3640,-28,15352,-20,43,230
206779495,-3084,-1028,16948,-140,252,-373
206783201,-3724,544,16096,-222,378,-10
206786671,-2452,968,15736,-249,262,-323
206790228,-2900,1092,15492,-90,173,-161
206793785,-3520,2308,15612,75,-39,313
206797168,-3512,-388,15688,61,91,73
206800378,-4112,312,15780,-28,17,-5
206803612,-2812,400,16612,-83,-110,-302
206807144,-2284,1396,15224,-218,124,-230
206810788,-3520,1692,15240,14,45,220
206814084,-3152,36,16040,-11,269,84
206817294,-3812,592,15964,-187,365,-28
206820764,-2548,460,15656,-262,338,-309
206824321,-3160,844,15684,-104,103,-243
206827901,-3312,2464,15756,-176,-39,-213
206831521,-3396,12,15576,62,21,135
206834679,-4236,368,15720,71,31,27
206837767,-2700,92,16600,-149,35,-221
206841150,-2324,1052,15404,-246,135,-266
206844794,-3616,1904,15420,-14,-27,-136
206848350,-2944,428,15852,-27,129,128
206851782,-3972,588,16128,46,203,204
206855030,-3624,-1584,16660,-183,290,-232
206858760,-3424,784,15728,-55,207,-15
206862144,-2752,824,16292,-231,66,-309
206865614,-3212,484,15388,76,-102,182
206868997,-3488,1776,15300,172,-138,161
206872554,-3288,-1160,16988,-137,-73,-240
206876287,-3396,116,15416,-227,334,-132
206879865,-2192,1024,15776,-218,178,-465
206883484,-2684,1484,15788,-192,261,-83
206887041,-2512,1772,15644,-130,266,-80
206890598,-3320,-120,15944,-55,62,-91
206893981,-3988,1912,15784,100,133,342
206897451,-3652,-1700,17028,-249,120,-416
206901185,-3616,600,15556,-118,45,-146
206904676,-2948,1072,16304,-115,-26,-285
206908295,-2352,1552,15424,-105,-20,-108
206911938,-3168,1644,15600,36,-56,127
206915321,-3724,-952,16824,-4,191,-23
206918705,-3492,528,16208,-58,299,133
206922088,-2956,-708,16136,-323,393,-398
206925731,-3452,520,15716,-109,174,-189
206929311,-2768,2248,16032,-98,-5,11
206932585,-3700,-732,15796,36,-119,171
206936090,-4120,900,15496,137,8,116
206939264,-2628,-628,16768,-168,-94,-339
206942908,-2836,212,15300,-281,349,-294
206946464,-3220,1692,15508,-183,46,-420
206950021,-2500,1288,15588,-45,118,114
206953541,-3896,1140,15788,-65,263,80
206956875,-3752,-916,16120,22,110,35
206960171,-3428,232,15956,-159,326,-243
206963728,-2896,-108,16536,-318,26,-450
206967285,-2792,1052,15068,92,-59,125
206970668,-3236,1784,15824,49,-192,-5
206974051,-3592,-780,17084,-20,-58,16
206977459,-3012,160,15404,-139,333,83
206980818,-2252,276,16028,-159,-41,-458
206984374,-2360,1444,15812,-263,444,-126
206988018,-2876,1920,15328,-119,116,20
206991488,-3736,-704,16444,70,-1,90
206994698,-4084,1024,16256,17,247,223
206998081,-3076,-612,16596,-280,60,-442
207001662,-3104,816,15068,-171,166,-169
207005194,-3132,1644,16040,49,-239,-30
207008664,-2608,1368,15632,27,23,73
207011874,-3824,504,15116,-174,166,85
207015257,-2216,-248,15920,-36,252,-226
207018814,-3144,832,15980,-334,337,-168
207022371,-2536,2132,15488,-327,293,-387
207026018,-2968,1000,15360,38,75,-2
207029247,-3988,1664,15924,4,-78,170
207032521,-3872,-1580,16348,-31,122,-67
207036116,-3488,548,15372,-160,47,-192
207039547,-2636,120,16740,-105,-91,-329
207043104,-2512,1192,15612,-60,-74,8
207046400,-3564,1576,15536,26,-25,152
207049784,-3592,-1244,17032,-39,200,-104
207053530,-3888,928,15924,-86,258,110
207056810,-3060,-696,16036,-291,422,-386
207060454,-3236,488,16080,-168,188,-333
207064011,-3004,2748,15828,35,-3,191
207067307,-3348,272,15204,91,-106,171
207070691,-4116,972,15380,87,45,100
207073900,-2768,-652,16844,-133,-149,-345
207077655,-2588,576,15496,-342,289,-368
207081187,-3288,1864,15460,-84,6,-282
207084571,-2664,872,15676,-80,174,53
207087867,-3492,1608,15732,-19,305,160
207091337,-3944,-1316,16376,21,137,66
207094720,-3448,248,15992,-172,316,-320
207098277,-2704,536,16380,-289,72,-352
207101772,-3380,424,15320,86,-90,108
207105044,-3904,1316,15380,57,-117,2
207108340,-3816,-1348,16944,-24,-56,-27
207111897,-2892,408,15372,-312,413,-303
207115454,-2076,436,15880,-165,-64,-403
207119010,-2660,1420,15488,-252,372,-139
207122654,-2848,2056,15472,-79,110,55
207126040,-3704,-964,16380,27,64,60
207129270,-4256,988,16240,-4,245,181
207132543,-2964,-576,16676,-280,31,-395
207136103,-2940,860,15172,-159,129,-153
207139696,-3168,1596,16004,66,-270,-34
207143127,-2716,1024,15716,34,-19,76
207146423,-3540,656,15092,-169,169,76
207149806,-2228,-212,16044,-45,142,-242
207153412,-3036,1080,15784,-329,376,-171
207157007,-2672,1828,15588,-277,267,-371
207160650,-2812,1020,15504,-27,149,-8
207164034,-3208,2764,15736,12,-125,203
207167503,-3816,-1696,16484,-47,154,-93
207171060,-4404,436,15848,25,-19,37
207174270,-2600,108,16708,-115,-101,-337
207177938,-2528,1340,15360,-270,269,-302
207181557,-3464,1836,15520,18,-47,195
207184940,-3604,-1304,17208,-27,272,58
207188410,-3976,1096,15832,-60,256,148
207191880,-2988,-836,16132,-59,252,-51
207195350,-3216,504,15824,-221,206,-338
207198907,-3064,2492,15824,-208,-22,-272
207202575,-3300,312,15332,43,-48,122
207205847,-3972,1052,15524,93,-236,77
207209230,-3500,-1252,16992,-106,76,-140
207212874,-3488,4,15268,-186,219,-109
207216257,-2140,896,15664,-116,52,-262
207219727,-2788,1128,15568,-263,305,-127
207223371,-2984,2084,15224,37,168,146
207226777,-3780,-1324,16352,32,127,114
207230224,-4252,660,16264,-28,223,106
207233607,-2816,36,16492,-161,149,-295
207237077,-2696,1196,15084,-142,23,-140
207240669,-3280,1896,15676,-15,-161,-241
207244277,-2952,756,15816,40,-108,138
207247661,-3776,260,15240,-30,21,206
207250961,-3260,-1152,16924,-152,247,-322
207254736,-2724,1144,15868,-215,314,-34
207258244,-2336,1064,15568,-241,339,-316
207261888,-3028,960,15488,-64,104,-177
207265358,-3236,2464,15624,43,42,261
207268654,-3844,-1772,16576,4,28,134
207271951,-4128,324,15860,20,25,-30
207275160,-2548,516,16528,-120,-141,-304
207278828,-2420,1356,15256,-200,115,-254
207282447,-3604,1592,15192,21,-44,-55
207285831,-3068,192,15944,-15,169,69
207289127,-3968,576,16328,-113,368,21
207292510,-2524,204,16124,-220,308,-252
207296067,-3144,824,15324,-93,169,-229
207299537,-3100,2748,15784,-216,55,-271
207303118,-3432,92,15496,106,-70,199
207306390,-4200,368,15696,129,-87,150
207309774,-3260,-1164,16832,-137,-60,-233
207313504,-2424,1168,15248,-213,356,-139
207317147,-2424,1152,15720,-101,-71,-216
207320791,-2504,1668,15780,-151,274,-59
207324348,-3292,1868,15520,-190,265,-127
207328014,-3300,0,15824,85,49,132
207331027,-4148,284,16364,-77,354,13
207334324,-2740,804,16272,-221,77,-409
207337794,-2840,1240,15076,-54,24,-45
207341212,-3292,1868,15384,67,-221,44
207344560,-3292,404,16168,121,-72,172
207347944,-3556,-108,15472,-268,313,-88
207351549,-2968,-1080,16848,-183,69,-442
207355144,-2588,1420,15888,-271,385,-143
207358787,-2396,1324,15732,-210,179,-218
207362431,-3140,364,15548,-8,138,-118
207365814,-3600,2172,15620,33,24,258
207369110,-3832,-1784,16788,-135,114,-276
207372841,-3984,336,15636,-94,129,-70
207376228,-2816,636,16444,-147,-127,-324
207379892,-2404,1532,15288,-162,167,-145
207383511,-3084,1588,15460,3,-117,2
207386721,-3308,-376,16304,8,288,37
207389931,-3684,608,16284,-204,327,-3
207393314,-2592,636,15696,-235,320,-291
207396871,-2812,1032,15692,-105,164,-194
207400514,-2668,1624,16120,-142,-93,-139
207404182,-3560,-228,15600,26,8,98
207407281,-4096,532,15656,89,-148,77
207410577,-3196,-1000,16552,-66,24,-226
207414134,-2352,1264,15424,-289,308,-242
207417777,-2612,1588,15564,-4,-46,-69
207421161,-3116,-8,15860,-156,308,-16
207424544,-3344,1824,15316,24,142,225
207427950,-3648,-1520,16464,-240,368,-265
207431657,-3968,436,16176,-70,197,-40
207435041,-2628,1000,16624,-176,94,-394
207438597,-2748,1444,15036,-107,-5,-68
207442102,-3344,1620,15204,47,-238,-74
207445537,-3548,-240,16484,28,-6,106
207448834,-3308,108,15468,-232,277,-160
207452439,-2548,-616,16132,-174,188,-455
207456034,-2516,1576,15848,-312,368,-138
207459678,-2624,1748,15616,-137,220,-101
207463321,-2780,1084,15396,-42,92,-41
207466704,-3768,1792,15632,58,118,288
207470088,-3620,-1564,17084,22,132,15
207473471,-3632,480,15552,-145,76,-180
207476965,-2808,1420,16248,-129,-34,-371
207480584,-2316,1528,15312,-79,-22,-37
207484054,-3804,1136,15080,36,-77,110
207487438,-3520,-968,16756,-31,233,-59
207490908,-3516,600,15872,-31,242,155
207494291,-2884,-548,16176,-302,413,-396
207497934,-2976,1012,15360,-166,162,-189
207501602,-2872,2216,16132,-50,12,25
207504874,-3600,-872,15956,1,-49,105
207508171,-3956,912,15248,162,-45,146
207511554,-2748,-528,16784,-216,-73,-360
207515198,-2784,524,15384,-282,273,-252
207518754,-3200,1648,15576,-117,76,-382
