Time,Accel_X,Accel_Y,Accel_Z,Gyro_X,Gyro_Y,Gyro_Z
491653843,-2376,-516,14596,-121,343,58
491657361,-2952,-376,15304,11,120,296
491660696,-2376,-632,14932,84,252,273
491664079,-2644,-488,14952,-117,279,56
491667549,-2836,-388,15096,81,184,311
491670932,-2520,-432,14504,-72,212,135
491674402,-2776,-396,15044,-30,213,166
491677872,-2484,-544,14708,-16,164,335
491681342,-2712,-544,14988,-112,218,99
491684836,-2580,-564,14920,37,227,268
491688199,-2584,-400,14864,-128,232,109
491691787,-2800,-476,15116,27,164,271
491695136,-2448,-440,14872,-52,236,176
491698606,-2664,-332,14852,-59,199,183
491702076,-2708,-464,14960,-58,346,115
491705546,-2724,-404,14860,-76,184,197
491709040,-2832,-300,14728,-23,254,160
491712486,-2576,-408,14932,-69,286,146
491715956,-2828,-532,15236,-25,202,214
491719426,-2336,-424,14736,-78,318,174
491722896,-2932,-376,15236,-106,200,143
491726452,-2416,-536,14692,10,198,263
491729836,-2764,-420,15016,-104,255,91
491733330,-2748,-608,15156,77,182,188
491736689,-2648,-396,15084,-54,335,146
491740159,-2540,-480,14748,-78,209,89
491743542,-2948,-424,15060,-71,313,169
491747012,-2544,-476,15008,18,115,312
491750395,-2768,-444,14892,-67,243,134
491753865,-2708,-480,15004,-36,133,289
491757384,-2668,-464,14776,-122,245,81
491760805,-2864,-468,15124,-43,261,223
491764275,-2668,-528,14780,-33,186,217
491767745,-2692,-516,15160,-24,352,106
491771215,-2960,-320,14952,-6,167,303
491774599,-2800,-336,15372,-71,332,5
491777895,-2636,-328,14768,28,107,372
491781278,-2596,-552,14952,-122,279,35
491784772,-2740,-412,15008,78,143,405
491788132,-2368,-512,14676,-187,323,-24
491791692,-2852,-372,15068,31,165,334
491795107,-2500,-540,14852,-133,387,49
491798542,-2896,-580,15360,64,139,278
491801925,-2444,-460,14740,-50,301,119
491805395,-2716,-412,14728,-8,125,268
491808803,-2696,-384,14936,-20,371,82
491812161,-2820,-420,14976,-78,195,262
491815631,-2836,-412,14836,-51,269,151
491819101,-2456,-436,14860,-99,279,166
491822571,-2944,-496,15312,-107,222,118
491826128,-2576,-492,14848,40,247,215
491829511,-2704,-420,14872,-89,229,101
491833006,-2808,-392,15120,74,177,294
491836365,-2404,-496,14872,-66,306,81
491839748,-3044,-360,14980,5,205,221
491843044,-2676,-452,14972,-29,296,227
491846514,-2700,-468,14860,-144,262,26
491849984,-2996,-500,15304,117,133,358
491853454,-2340,-532,14588,-279,332,-16
491857060,-3088,-588,15372,105,52,350
491860394,-2112,-588,14332,-215,359,58
491863864,-3368,-448,15524,-30,217,127
491867334,-2284,-540,14624,87,266,276
491870718,-2736,-408,14972,-158,274,32
491874188,-2524,-456,14684,106,165,309
491877658,-2824,-344,15044,-139,313,39
491881128,-2504,-616,14780,8,105,280
491884447,-2568,-360,14804,-166,369,58
491887894,-2748,-420,14964,-99,156,222
491891364,-2848,-428,14956,-117,324,92
491894838,-2484,-468,15100,-65,261,171
491898339,-2948,-372,15088,42,170,237
491901687,-2376,-616,14644,-40,306,154
491905157,-2848,-444,15228,68,134,266
491908565,-2424,-484,14832,-24,326,138
491912011,-2948,-368,14964,-72,128,228
491915481,-2316,-564,14848,-45,254,163
491918951,-3104,-248,15132,-77,215,316
491922421,-2404,-452,14740,-32,182,177
491925891,-2768,-588,15076,-73,302,155
491929361,-2696,-480,14952,17,154,219
491932768,-2356,-568,14984,-18,337,26
491936127,-3000,-388,15328,66,119,368
491939510,-2308,-552,14600,79,222,171
491942894,-2812,-444,14928,-73,321,173
491946364,-2652,-456,14804,-94,179,108
491949834,-2796,-468,15032,40,190,255
491953217,-2628,-424,14848,-142,241,125
491956777,-2908,-320,15016,-4,149,258
491960206,-2724,-476,14872,-129,314,126
491963714,-2788,-400,15036,38,96,256
491967010,-2616,-492,15052,-44,361,150
491970480,-2836,-432,15180,-26,110,228
491973950,-2476,-412,14688,2,221,213
491977247,-2696,-412,14868,-72,225,119
491980717,-2664,-464,14920,-55,201,169
491984210,-2684,-500,14852,-52,300,152
491987657,-2708,-472,15116,-40,148,191
491991127,-2628,-452,14992,-67,282,195
491994597,-2620,-476,14824,-105,158,179
491998157,-2744,-428,14892,63,205,245
492001572,-2436,-588,14960,-77,299,97
492004920,-2800,-448,14928,69,111,307
492008328,-2400,-464,14680,-104,423,27
492011773,-3396,-288,15436,98,-2,449
492015070,-2016,-496,14292,-159,391,34
492018540,-3252,-320,15396,-93,150,210
492022010,-2212,-576,14732,-91,232,139
492025480,-2932,-376,15004,-161,310,86
492028950,-2424,-460,14668,-17,180,172
492032444,-3036,-336,14988,-30,333,140
492035890,-2400,-596,14820,-22,199,167
492039360,-2948,-404,14968,-71,327,120
492042830,-2368,-544,14828,-59,295,111
492046300,-3160,-308,15064,-78,205,230
492049770,-2600,-568,14864,-46,334,142
492053240,-3140,-380,15288,-22,179,181
492056713,-2532,-508,14752,-40,232,178
492060282,-2816,-304,15040,-171,278,81
492063650,-2900,-476,15152,52,129,264
492067033,-2424,-508,14584,-182,457,-10
492070590,-3432,-340,15412,212,-31,495
492074060,-2068,-440,14456,-44,410,58
492077443,-3288,-268,15204,-53,155,168
492080913,-2260,-464,14324,-117,289,82
492084406,-3084,-456,15384,-211,295,107
492087940,-2436,-632,14780,10,63,307
492091236,-2736,-536,14900,-166,445,-12
492094793,-2568,-516,14820,102,50,415
492098176,-2440,-524,14696,-195,447,-137
492101858,-2820,-476,14868,129,129,419
492105290,-2524,-440,14668,-129,320,-75
492108871,-2832,-388,14940,13,197,248
492112230,-2532,-436,14884,-20,185,146
492115700,-2976,-344,15024,29,182,246
492119083,-2612,-504,14984,23,197,284
492122466,-2424,-444,14896,-130,238,93
492125936,-2860,-488,15132,24,270,194
492129319,-2584,-508,14864,-45,105,251
492132814,-2836,-448,15068,-16,232,120
492136259,-2592,-528,14972,-31,223,207
492139729,-2976,-320,15024,-13,174,176
492143199,-2560,-580,14876,-34,361,128
492146669,-2964,-488,15132,-15,129,253
492150139,-2264,-444,14624,-87,242,203
492153609,-3156,-496,15488,-94,220,253
492157128,-2512,-636,14728,79,64,403
492160376,-2616,-356,14864,-184,398,16
492163846,-2688,-464,15176,151,21,416
492167229,-2336,-492,14628,-150,460,-24
492170786,-3048,-456,15464,131,-16,409
492174256,-2096,-424,14476,-57,384,43
492177639,-3000,-412,15380,11,175,274
492181022,-2304,-544,14752,-20,233,153
492184516,-2988,-412,15336,-68,328,184
492187962,-2660,-504,14964,89,59,311
492191259,-2292,-516,14712,-136,325,64
492194729,-3044,-440,15040,46,63,337
492198025,-2436,-512,14692,-22,266,212
492201499,-3184,-384,15396,-44,243,221
492205000,-2280,-664,14752,49,205,185
492208373,-2864,-372,15008,0,274,193
492211645,-2692,-452,14864,-98,239,68
492215028,-2800,-460,14880,-23,292,181
492218498,-2276,-564,14820,-90,208,211
492221968,-2940,-268,14920,-88,216,167
492225438,-2496,-592,14880,-61,295,175
492228908,-2960,-520,15032,-46,215,138
492232403,-2536,-520,14856,39,263,150
492235762,-2784,-436,15036,-64,233,151
492239232,-2672,-412,14824,-32,174,191
492242702,-2540,-364,14712,-98,350,132
492246172,-3016,-532,15188,45,99,254
492249468,-2544,-544,14672,-131,379,76
492252938,-2984,-436,15300,-44,124,239
492256411,-2360,-424,14508,-36,228,204
492259927,-2852,-476,15268,-196,317,40
492263348,-2672,-376,14988,24,114,291
492266731,-2892,-456,15144,-90,379,70
492270115,-2692,-396,15140,76,97,310
492273411,-2708,-508,14892,-54,400,40
492276794,-2916,-400,15108,78,50,354
492280091,-2336,-472,14460,-198,377,-61
492283671,-3164,-472,15584,-54,205,262
492287118,-2380,-532,14760,-76,204,152
492290588,-2884,-396,15260,-97,320,108
492294058,-2456,-480,14924,-57,175,187
492297528,-2748,-452,15132,-72,350,62
492300911,-2704,-420,14980,40,100,315
492304294,-2576,-516,14672,-71,263,141
492307807,-2848,-452,15156,16,196,214
492311147,-2432,-392,14620,-101,222,85
492314617,-2864,-368,15148,-59,334,130
492318087,-2756,-404,14912,-63,214,232
492321557,-2756,-396,14988,16,162,269
492324941,-2468,-576,14728,-139,255,119
492328497,-2804,-516,15064,-45,118,247
492331992,-2576,-464,14924,-30,300,169
492335437,-2740,-416,15096,-9,151,215
492338821,-2788,-588,15048,100,277,257
492342291,-2744,-512,14972,-85,237,133
492345761,-2704,-364,14896,-16,240,160
492349231,-2780,-376,14932,-116,351,99
492352701,-2620,-492,15108,-59,118,212
492356171,-2704,-372,14996,-15,223,220
492359689,-2516,-560,14720,-46,134,236
492363111,-2836,-416,14988,-76,206,192
492366581,-2608,-444,15032,49,177,285
492369964,-2368,-372,14532,-152,308,26
492373434,-2852,-544,15244,214,165,393
492376904,-2372,-392,14376,-101,257,56
492380374,-2952,-456,15096,80,144,334
492383782,-2456,-340,14708,-85,234,143
492387227,-3048,-468,15376,-34,176,207
492390697,-2548,-444,14736,-33,239,246
492394167,-2912,-436,15436,-80,163,191
492397637,-2584,-496,14596,14,255,240
492401020,-2740,-524,15172,-2,181,192
492404404,-2516,-552,14716,44,258,183
492407829,-2832,-328,14936,-96,266,75
492411170,-2772,-364,14900,89,116,291
492414553,-2440,-372,14600,-148,355,81
492418023,-3008,-320,15136,-47,169,223
492421493,-2664,-516,15120,17,225,282
492424877,-2416,-556,14820,-172,309,61
492428347,-2900,-360,15044,-82,166,245
492431820,-2636,-500,14820,0,330,203
492435138,-2960,-408,15172,-82,176,158
492438583,-2540,-524,14844,118,265,244
492442053,-3052,-484,15076,-45,224,140
492445523,-2516,-392,14836,81,146,328
492448906,-2572,-344,14852,-135,324,59
492452376,-2712,-512,15004,47,144,301
492455760,-2600,-540,14952,-128,373,98
492459278,-2572,-472,14868,-5,95,337
492462526,-2612,-408,14960,-109,361,24
492465996,-2728,-420,15148,-43,172,250
492469466,-2632,-544,14904,35,188,216
492472849,-2592,-552,14932,-55,389,66
492476233,-2672,-440,14900,138,68,348
492479616,-2444,-384,14644,-86,386,89
492483024,-2856,-432,15100,-28,146,200
492486469,-2588,-380,14800,-26,266,208
492489939,-2668,-576,15068,-90,320,141
492493409,-2628,-540,15032,-21,73,303
492496792,-2624,-532,14784,-55,329,162
492500262,-2528,-488,14916,-51,169,185
492503732,-2828,-408,15016,8,249,206
492507052,-2420,-488,14800,76,84,329
492510360,-2680,-356,15092,-65,278,87
492513709,-2500,-496,14952,-29,353,124
492517179,-2864,-368,15016,-174,289,2
492520562,-2848,-556,15080,75,117,401
492523945,-2852,-364,15040,-171,250,43
492527415,-2704,-436,15072,55,88,335
492530712,-2532,-460,14684,-192,372,57
492534206,-2716,-536,15040,66,97,338
492537478,-2572,-500,14772,-80,358,130
492540948,-2736,-380,14736,80,103,274
492544331,-2428,-420,14788,-19,354,90
492547715,-2916,-404,14996,-43,243,163
492551185,-2560,-424,14480,-132,251,132
492554741,-3096,-284,15196,-60,218,267
492558272,-2460,-412,14708,24,108,292
492561595,-2592,-520,14868,-115,275,100
492565151,-2580,-404,14968,-6,194,302
492568535,-2612,-560,15048,-12,292,77
492571918,-2492,-572,14808,53,220,290
492575301,-2908,-516,15088,-26,260,73
492578684,-2508,-404,14748,-17,239,224
492582179,-3164,-264,15088,-197,334,-37
492585711,-2564,-468,14948,-24,203,208
492589181,-2932,-352,15064,-113,346,125
492592738,-2720,-420,14904,3,128,240
492596034,-2504,-460,14880,-128,319,73
492599504,-3008,-424,15100,-13,99,275
492602888,-2584,-480,14732,-58,241,86
492606271,-2924,-436,15140,24,232,239
492609677,-2620,-408,14868,-58,216,106
492613159,-2668,-444,14984,21,289,213
492616507,-2812,-492,15020,-20,153,248
492619977,-2620,-572,14976,-94,264,173
492623447,-2728,-532,15140,-102,167,161
492627004,-2524,-564,15016,-59,192,126
492630474,-2744,-440,14900,-31,295,219
492633969,-2676,-524,14896,11,136,219
492637327,-2552,-496,14772,18,290,201
492640711,-2648,-388,14932,-31,178,252
492644181,-2748,-416,15064,-65,338,96
492647564,-2684,-436,14912,-63,278,184
492651034,-2976,-356,15016,-64,202,159
492654504,-2584,-516,14968,54,285,211
492657935,-2696,-444,14940,-77,130,235
492661357,-2464,-564,14772,-86,310,101
492664827,-2772,-420,15072,-85,180,261
492668297,-2716,-584,14960,-38,266,160
492671767,-2604,-504,15152,45,218,291
492675150,-2564,-420,14736,-47,191,138
492678620,-2852,-456,15000,17,238,238
492682028,-2528,-484,14820,-70,246,71
492685387,-2888,-452,15132,-37,180,236
492688857,-2496,-604,14896,-76,201,169
492692327,-2832,-420,15116,-81,192,183
492695797,-2516,-544,14912,-60,341,115
492699267,-2892,-408,15076,-9,124,252
492702650,-2580,-484,14732,-25,350,103
492706120,-2944,-380,15236,22,154,204
492709527,-2368,-440,14748,-27,255,112
492712977,-3040,-332,15108,-84,279,153
492716479,-2492,-440,14856,-24,191,192
492719913,-2724,-480,15080,-189,370,65
492723383,-2784,-484,15100,4,93,305
492726593,-2640,-436,14896,-156,338,-5
492730063,-2976,-400,15112,-5,122,280
492733471,-2392,-492,14796,-116,252,58
492736916,-2824,-492,15308,-9,259,223
492740300,-2448,-424,14824,-35,161,182
492743770,-2784,-296,15052,0,306,161
492747066,-2544,-632,14800,9,171,214
492750363,-2936,-420,14872,-61,217,205
492753833,-2764,-376,15060,-48,220,221
492757351,-2688,-484,14900,-101,174,190
492760859,-2868,-504,15012,-44,268,232
492764329,-2440,-500,15000,-95,226,121
492767799,-2704,-476,14964,-37,281,173
492771269,-2800,-476,15052,57,236,254
492774653,-2368,-476,14712,-13,219,172
492778123,-2948,-460,15148,-55,299,155
492781596,-2408,-456,14780,-49,139,182
492785087,-2892,-456,15044,-92,374,67
492788446,-2432,-424,14708,-42,85,323
492791829,-2724,-396,14880,-154,359,5
492795212,-2836,-516,15240,59,185,351
492798596,-2676,-344,14888,-181,291,25
492802066,-2976,-412,15080,17,225,284
492805449,-2604,-364,14676,-111,289,22
492808942,-2956,-552,15292,61,212,288
492812302,-2432,-516,14616,-118,329,60
492815772,-2720,-488,14928,34,89,334
492819104,-2564,-352,14668,-92,400,92
492822452,-2788,-396,14944,-33,92,299
492825835,-2368,-560,14720,-122,385,58
492829305,-3072,-348,15168,-30,95,305
492832713,-2632,-428,14820,-11,261,182
492836158,-2820,-552,15136,-61,257,193
492839628,-2376,-416,14728,21,151,250
492843012,-2808,-476,15160,-80,351,64
492846395,-2352,-424,14484,28,140,257
492849778,-2716,-488,15084,-190,476,-107
492853422,-2528,-444,14992,122,-17,481
492856940,-2444,-504,14840,-240,465,-85
492860448,-2924,-408,15196,79,106,400
492863832,-2092,-544,14552,-209,306,-8
492867302,-3228,-432,15388,106,143,410
492870772,-2092,-496,14356,-75,269,108
492874242,-3244,-384,15564,81,78,331
492877538,-2096,-488,14468,26,238,234
492880921,-2948,-484,15180,-190,417,-91
492884503,-2520,-560,14940,90,168,367
492887861,-2640,-324,14888,-197,271,48
492891336,-2696,-636,15164,26,204,270
492894715,-2492,-508,14728,-123,118,215
492898271,-3084,-412,15284,11,151,231
492901655,-2348,-628,14820,1,234,239
492904951,-2692,-400,14916,-71,261,85
492908358,-2744,-396,15088,168,162,432
492911804,-2216,-420,14576,-175,356,-75
492915361,-2756,-512,15228,115,102,363
492918835,-2392,-320,14600,-151,351,26
492922336,-3072,-408,15244,1,94,321
492925511,-2288,-532,14808,11,284,232
492928894,-2936,-348,15176,-67,120,260
492932389,-2524,-468,14900,-66,305,147
492935834,-2856,-324,15064,-109,132,206
492939391,-2796,-528,14892,-6,239,136
492942774,-2800,-516,15148,1,255,223
492946071,-2512,-440,14812,-16,198,166
492949541,-2644,-468,14896,-13,309,151
492953011,-2592,-500,14928,-106,258,128
492956571,-2896,-376,15092,-93,263,155
492960087,-2556,-520,14844,3,225,237
492963334,-2648,-524,15020,-176,244,92
492966804,-2844,-516,15116,23,239,274
492970187,-2592,-404,14904,-22,195,154
492973657,-2744,-556,15308,17,263,226
492977040,-2532,-448,14864,-118,294,102
492980597,-2792,-444,15156,-3,226,193
492984005,-2736,-436,14876,41,281,231
492987364,-2632,-468,14812,-56,141,204
492990834,-2776,-452,14848,-20,221,252
492994304,-2436,-416,14632,-128,235,111
492997860,-3032,-340,15228,17,112,277
493001244,-2436,-556,14820,-54,282,204
493004714,-2820,-404,15152,-16,161,176
493008207,-2412,-564,14796,32,226,260
493011567,-2804,-388,14988,-60,236,91
493014950,-2560,-508,14864,25,201,209
493018333,-2540,-396,14960,-40,317,147
493021803,-2824,-368,15036,-24,174,203
493025308,-2572,-460,14924,-1,248,200
493028657,-2788,-424,14968,-79,235,213
493032151,-2744,-464,14964,-42,193,176
493035597,-2540,-516,14780,-115,282,176
493039153,-2920,-396,15052,43,112,265
493042537,-2388,-476,14772,-9,317,197
493045920,-2912,-484,15216,-26,208,150
493049390,-2312,-516,14756,63,210,243
493052773,-2848,-356,14956,-117,319,124
493056333,-2476,-536,14928,-3,119,322
493059815,-2684,-556,15032,-81,281,131
493063183,-2472,-564,15044,45,85,350
493066480,-2704,-516,14920,-150,395,-21
493070036,-2652,-500,15020,33,155,323
493073420,-2956,-428,15032,10,198,219
493076803,-2504,-552,14912,-11,312,162
493080273,-2736,-372,14872,-60,240,91
493083681,-2804,-552,15188,99,166,252
493087039,-2440,-380,14660,-153,247,76
493090509,-2976,-420,14940,-73,269,193
493093979,-2716,-488,14840,-56,225,215
493097449,-2592,-508,15036,-28,133,196
493100919,-2728,-444,14792,-42,297,179
493104389,-2584,-552,14856,-58,201,166
493107883,-2808,-404,14916,-57,246,179
493111329,-2688,-432,15044,-38,222,185
493114799,-2708,-456,14904,31,160,177
493118183,-2572,-424,14832,-56,264,268
493121653,-2804,-396,14956,-118,192,148
493125213,-2640,-564,14880,-13,260,212
493128718,-2684,-400,14972,-121,249,165
493132261,-2708,-492,15084,46,120,312
493135619,-2428,-496,14532,-164,401,29
493139089,-2912,-384,15160,41,75,278
493142386,-2364,-540,14816,-46,333,152
493145856,-2812,-460,15052,-18,169,194
493149326,-2524,-536,14816,-44,361,55
493152709,-2680,-488,14984,51,191,325
493156092,-2492,-536,14748,-173,264,62
493159611,-3020,-428,15320,56,116,405
493162946,-2520,-484,14684,-143,261,-4
493166416,-2960,-368,15116,41,146,284
493169799,-2424,-544,14772,-60,224,176
493173269,-2916,-520,15108,-6,276,130
493176652,-2336,-616,14720,22,311,194
493180035,-3028,-508,15320,-96,254,84
493183443,-2596,-460,14792,15,223,236
493186802,-2796,-384,15092,-247,350,-47
493190359,-2984,-456,15184,163,-14,454
493193829,-2560,-512,15044,-281,532,-123
493197472,-3080,-424,15368,156,-50,493
493200942,-2188,-556,14596,-195,456,-83
493204499,-3196,-364,15528,41,54,390
493207819,-2188,-388,14324,-80,345,32
493211179,-3284,-404,15500,-89,239,148
493214649,-2316,-420,14632,100,112,299
493218119,-2648,-552,15036,-215,428,-33
493221675,-2708,-396,14676,18,82,311
493224972,-2532,-396,14852,-156,396,23
493228445,-3144,-372,15212,18,49,391
493231777,-2264,-508,14652,-82,308,83
493235146,-3124,-448,15388,-68,180,206
493238592,-2256,-608,14744,-54,241,112
493242062,-3112,-320,15400,-65,307,117
493245532,-2556,-464,14904,47,189,153
493248915,-2668,-484,14792,-30,248,243
493252385,-2816,-312,14932,-97,246,189
493255855,-2544,-536,15032,-81,217,150
493259373,-2768,-456,15036,-44,269,237
493262795,-2788,-444,14952,-75,159,161
493266265,-2688,-436,15020,-32,255,178
493269735,-2672,-312,14816,-77,164,246
493273205,-2664,-504,14940,-65,284,100
493276675,-2812,-508,15280,63,232,290
493280058,-2352,-424,14712,-21,258,97
493283466,-2668,-456,14952,71,209,322
493286825,-2504,-460,14908,-101,266,100
493290381,-2836,-408,14988,-23,165,305
493293851,-2444,-404,14976,-117,267,112
493297408,-2832,-516,15140,-85,126,188
493300878,-2708,-400,15040,-55,315,152
493304348,-2752,-400,14972,-16,128,259
493307841,-2684,-480,14888,-7,305,116
493311201,-2924,-412,15388,93,166,294
493314585,-2444,-472,14728,-70,281,84
493317968,-2972,-356,15188,-70,259,276
493321438,-2520,-312,14568,-185,269,21
493324908,-3164,-392,15352,-48,244,210
493328378,-2312,-468,14700,-108,272,123
493331978,-2748,-460,15132,6,190,244
493335231,-2496,-340,14724,-123,345,114
493338788,-2856,-464,15316,31,148,239
493342171,-2412,-504,14780,-29,325,87
493345554,-2920,-384,15308,-30,169,196
493349024,-2496,-456,14732,10,197,188
493352408,-3020,-344,15152,-159,314,100
493355964,-2576,-424,14764,62,102,323
493359396,-2988,-380,15124,-93,351,135
493362818,-2564,-552,15016,40,75,308
493366114,-2664,-348,15004,-123,314,93
493369584,-2752,-424,14964,41,62,347
493372881,-2496,-468,14708,-70,333,82
493376264,-2908,-436,15140,48,156,314
493379647,-2268,-516,14584,-29,262,122
493383142,-3032,-404,15324,65,261,271
493386500,-2200,-576,14500,-53,138,212
493389970,-2848,-440,15084,-58,264,166
493393440,-2364,-584,14848,50,120,336
493396824,-2716,-308,14808,-113,233,147
493400380,-2600,-412,15096,-14,280,164
493403850,-2648,-380,14784,-89,152,156
493407345,-2888,-412,15180,-10,257,220
493410790,-2520,-512,14700,-34,188,214
493414260,-2852,-368,15164,-40,218,155
493417730,-2548,-480,14844,-3,250,210
493421114,-2700,-412,14928,-20,179,182
493424584,-2680,-432,14836,-99,345,122
493428054,-2784,-480,14992,-74,158,253
493431527,-2720,-352,14896,-64,249,128
493435035,-2760,-420,14952,-48,244,234
493438464,-2672,-556,14960,-26,207,162
493441934,-2840,-472,15016,83,250,259
493445317,-2732,-476,14820,-108,277,74
493448787,-2808,-496,15064,113,119,326
493452257,-2688,-320,14656,-230,411,-45
493455814,-3028,-428,15304,85,68,351
493459159,-2584,-524,14796,-140,419,54
493462580,-3088,-428,15308,-28,100,270
493466050,-2480,-440,14672,-111,291,76
493469520,-2856,-512,15216,-79,176,212
493472990,-2736,-416,15048,-98,262,34
493476373,-2984,-580,15168,55,196,311
493479757,-2340,-520,14752,-126,326,14
493483251,-2940,-500,15108,101,171,294
493486697,-2364,-476,14684,-149,344,56
493490167,-2924,-428,15208,60,137,257
493493550,-2444,-552,14712,-85,272,146
493497020,-3032,-564,15228,-35,118,249
493500490,-2364,-564,14604,-41,278,153
493503960,-3056,-420,15192,-86,173,206
493507454,-2512,-556,14828,46,179,252
493510813,-2756,-424,14892,-14,295,205
493514283,-2480,-536,14920,57,139,217
493517666,-2824,-348,15028,-59,262,155
493521136,-2768,-492,15268,-23,198,200
493524606,-2568,-492,14588,-49,230,199
493528076,-2960,-492,15144,-14,238,248
493531550,-2420,-548,14812,-38,170,188
493535058,-2856,-420,15196,-22,254,238
493538486,-2500,-524,14968,-70,156,226
493541956,-2864,-368,15176,-25,185,216
493545426,-2464,-484,14792,-44,307,147
493548896,-2952,-484,15364,135,54,372
493552280,-2304,-488,14652,7,319,165
493555576,-2836,-420,14968,-88,212,175
493559107,-2560,-472,14812,-6,178,256
493562429,-2716,-488,15116,-203,231,128
493565986,-2676,-456,14880,5,117,263
493569283,-2692,-392,14900,-109,268,97
493572753,-2604,-484,14816,-64,185,154
493576223,-2748,-356,14884,-14,330,142
493579693,-2612,-564,14940,4,212,158
493583014,-2704,-440,14924,36,244,215
493586372,-2672,-432,14952,-57,226,176
493589842,-2824,-348,14992,-50,211,139
493593312,-2604,-508,14856,-70,229,217
493596782,-2776,-504,14916,-93,148,213
493600252,-2572,-480,14872,-17,305,164
493603722,-2608,-480,14892,-99,248,186
493607217,-2632,-352,15084,-36,266,174
493610662,-2928,-360,14844,-3,228,289
493614046,-2564,-564,14956,133,145,281
493617516,-2572,-444,14716,-126,382,56
493620986,-2956,-424,15164,46,84,273
493624282,-2476,-532,14532,-43,300,222
493627752,-3012,-376,15304,-54,266,144
493631222,-2504,-528,14844,-15,167,232
493634719,-2956,-524,15240,-52,286,191
493638197,-2532,-384,14820,-14,115,234
493641632,-2896,-440,14956,-75,278,142
493645102,-2636,-468,14916,-3,141,283
493648485,-2620,-392,14892,-10,240,155
493651955,-2748,-436,14956,2,254,212
493655252,-2464,-492,14852,-57,229,118
493658770,-2812,-464,14992,14,196,288
493662105,-2532,-456,14884,-86,193,133
493665575,-2804,-436,14928,-22,186,250
493669045,-2480,-456,14860,-160,305,72
493672515,-3032,-304,15228,18,64,352
493675812,-2492,-448,14880,-93,358,71
493679195,-3004,-496,15184,-51,176,214
493682689,-2524,-468,14680,65,266,179
493686048,-2876,-352,14932,-101,303,55
493689518,-2532,-412,14776,80,147,276
493692901,-2716,-392,14924,-163,362,40
493696371,-2808,-508,15236,31,65,306
493699668,-2592,-440,14856,-184,359,36
493703138,-3016,-380,15080,-14,122,269
493706611,-2392,-544,14660,-84,304,93
493710016,-3012,-308,15292,-61,193,246
493713461,-2452,-512,14672,16,278,68
493716758,-3032,-436,15060,-59,299,174
493720228,-2596,-380,14808,-58,207,144
493723698,-2748,-456,15104,-95,333,112
493727168,-2680,-400,14964,10,208,274
493730551,-2428,-512,14860,-70,263,161
493734044,-2852,-424,15096,-66,244,179
493737491,-2592,-484,14884,-56,154,173
493740996,-2848,-456,15048,-45,288,208
493744431,-2472,-484,14748,0,207,199
493747727,-2752,-600,15180,-29,252,159
493751197,-2644,-448,14908,17,224,251
493754581,-2808,-396,14980,-108,271,79
493758099,-2480,-616,14960,42,310,182
493761434,-2752,-404,15064,-172,188,112
493764991,-2740,-532,15024,-1,261,250
493768374,-2672,-456,15008,-135,244,118
493771931,-2608,-452,15104,4,204,214
493775227,-2632,-392,14896,-69,317,150
493778697,-2796,-404,15020,68,137,228
493782105,-2460,-580,14864,6,317,163
493785377,-2848,-400,15128,81,49,341
493788673,-2088,-460,14464,-104,382,65
493792143,-3288,-232,15320,-62,155,297
493795613,-2148,-452,14732,49,216,239
493798997,-2956,-352,15204,-65,275,189
493802467,-2152,-592,14536,-51,159,220
493805937,-3104,-388,15160,-160,395,20
493809431,-2424,-556,14712,19,93,269
493812703,-2764,-288,14988,-95,379,64
493816086,-2808,-504,15224,66,192,296
493819470,-2444,-456,14884,-84,301,52
493822853,-2956,-364,15280,-36,240,213
493826323,-2572,-444,14808,-139,280,55
493829793,-2976,-452,15208,0,199,332
493833113,-2424,-416,14648,-107,268,74
493836559,-2844,-468,15256,-59,245,182
493840029,-2564,-416,14844,-82,279,190
493843534,-2692,-572,15112,-31,218,159
493846969,-2632,-488,14988,11,271,229
493850353,-2604,-436,14940,-6,211,124
493853736,-2796,-548,14972,83,253,278
493857167,-2644,-404,14820,-147,322,58
493860589,-2768,-440,14944,24,125,306
493863972,-2616,-452,14980,-138,335,135
493867529,-2744,-556,14860,-32,115,244
493870999,-2536,-512,14852,-69,284,110
493874469,-2684,-420,15036,-19,137,254
493877939,-2576,-536,14972,-10,242,112
493881412,-2576,-496,14912,-30,266,207
493884904,-2860,-356,14996,-64,171,182
493888349,-2712,-384,14672,30,315,208
493891732,-2788,-360,14968,-112,229,85
493895202,-2588,-416,14644,79,112,338
493898586,-2668,-516,14924,-216,384,-15
493902142,-2756,-456,15172,59,71,323
493905439,-2496,-412,14620,-105,343,120
493909020,-2900,-368,15248,-13,190,250
493912466,-2556,-448,14632,62,204,207
493915849,-2804,-352,15168,-17,293,227
493919319,-2612,-380,14792,64,136,234
493922702,-2588,-476,14888,-139,386,36
493926172,-2772,-492,14996,20,130,281
493929555,-2524,-392,14568,-100,289,146
493933135,-2832,-456,15208,-27,178,276
493936582,-2348,-476,14536,-71,199,190
493940052,-2944,-280,15280,14,243,271
493943439,-2472,-416,14664,21,167,201
493946853,-2728,-452,15012,26,256,209
493950202,-2468,-388,14712,3,181,237
493953498,-2892,-492,15128,-55,315,86
493956931,-2284,-580,14780,-80,308,109
493960352,-2840,-440,15180,-213,279,68
493963822,-2884,-432,15124,51,195,349
493967205,-2632,-496,14820,-139,230,100
493970762,-2864,-448,15172,37,133,269
493974145,-2676,-340,14820,-153,247,143
493977702,-2684,-544,15044,-25,203,182
493981172,-2604,-516,14896,-20,287,180
493984666,-2584,-424,14940,-11,213,155
493988112,-2640,-372,14916,-9,260,205
493991495,-2772,-352,15052,-76,213,155
493994965,-2620,-352,14776,-30,166,303
493998435,-2636,-544,15128,-128,311,92
494001905,-2780,-356,15044,-14,89,276
494005288,-2588,-552,14920,9,283,201
494008609,-2736,-420,15028,-128,206,147
494012141,-2620,-396,14968,63,221,196
494015525,-2576,-524,14784,-82,338,158
494018995,-2828,-328,14948,59,132,237
494022378,-2556,-556,14752,-68,354,98
494025761,-2928,-460,15000,-24,104,261
494029231,-2340,-564,14472,-50,307,114
494032724,-2948,-364,15216,-31,204,283
494036171,-2520,-496,14932,-30,158,189
494039641,-2764,-396,15032,-4,235,222
494043024,-2568,-512,14828,-53,222,140
494046498,-2948,-420,15132,60,174,289
494049912,-2360,-544,14824,-15,248,119
494053348,-2860,-460,15068,-10,250,185
494056920,-2468,-452,14856,7,267,249
494060114,-2596,-324,14808,-132,220,74
494063584,-2832,-424,15120,-21,209,277
494067054,-2524,-456,14932,-106,215,150
494070611,-2808,-476,15048,-60,204,210
494074081,-2660,-332,15088,-97,317,84
494077464,-2788,-332,14956,22,126,233
494080847,-2664,-420,14860,26,327,204
494084255,-2696,-476,14952,-24,199,168
494087701,-2760,-496,15096,121,162,305
494091171,-2428,-432,14680,-123,309,63
494094641,-2952,-412,15128,13,109,293
494098024,-2392,-532,14648,-49,292,174
494101494,-2820,-416,15120,-66,176,211
494104964,-2552,-608,14940,1,271,169
494108285,-2584,-504,14996,-103,206,125
494111817,-2652,-516,15104,-7,208,218
494115200,-2716,-320,14908,-38,241,171
494118670,-2712,-364,15164,47,198,234
494122054,-2488,-496,14748,-13,351,150
494125524,-2764,-456,15068,-38,158,189
494128994,-2496,-468,14820,-16,238,253
494132487,-2728,-412,14988,-184,261,118
494136020,-2732,-488,14956,6,153,252
494139317,-2672,-424,14884,-63,306,176
494142787,-2756,-492,15140,5,172,209
494146083,-2708,-552,15120,15,276,178
494149470,-2744,-472,14776,-50,211,147
494152976,-2796,-396,15004,20,227,254
494156323,-2432,-380,14796,-176,322,35
494159838,-2856,-416,15140,27,153,299
494163173,-2380,-472,14684,-57,243,158
494166643,-2916,-504,15392,-68,157,225
494170113,-2484,-372,14620,-20,245,265
494173583,-2976,-360,15260,-68,110,255
494177053,-2432,-452,14792,-12,270,187
494180523,-3080,-340,15128,-20,197,230
494184018,-2368,-568,14704,-26,283,128
494187463,-2916,-476,15116,56,224,309
494190846,-2280,-364,14456,-50,254,88
494194230,-3080,-420,15376,122,178,352
494197700,-2392,-464,14656,-114,210,149
494201256,-3028,-496,15312,-19,80,313
494204640,-2272,-564,14812,-90,261,179
494208134,-2796,-440,15108,-51,223,118
494211580,-2472,-488,15032,99,169,348
494214963,-2600,-448,14860,-125,290,34
494218433,-2888,-452,14936,108,145,324
494221903,-2536,-624,14836,-87,264,127
494225373,-2844,-476,15088,-42,134,224
494228843,-2624,-384,14776,-74,321,134
494232336,-2880,-536,15116,-44,155,234
494235783,-2528,-408,14784,-53,256,200
494239253,-2788,-364,15292,-45,227,211
494242723,-2368,-476,14688,33,117,312
494246106,-2868,-520,15044,-52,329,115
494249576,-2560,-420,14848,21,84,313
494252876,-2540,-544,15012,-34,382,82
494256294,-2564,-448,14768,34,134,280
494259687,-2556,-456,14960,-102,386,27
494263109,-2916,-400,15088,13,190,323
494266492,-2328,-456,14812,-176,281,39
494269962,-3292,-372,15376,-58,267,201
494273432,-2120,-576,14616,-33,212,130
494276902,-3180,-348,15184,-85,321,146
494280372,-2372,-456,14748,-15,228,170
494283867,-2696,-580,15096,-49,269,136
494287312,-2580,-524,14824,36,276,237
494290696,-2776,-388,14852,26,185,154
494294079,-2508,-392,14740,-83,330,110
494297549,-3008,-312,15064,-67,116,287
494301019,-2492,-532,14828,-42,260,192
494304489,-2784,-512,15000,-136,214,163
494308070,-2756,-324,14944,-18,159,220
494311516,-2768,-284,15016,-110,320,115
494315072,-2692,-464,15168,-1,136,217
494318456,-2588,-536,14980,-20,341,98
494321839,-2796,-516,15212,13,143,247
494325222,-2584,-352,14696,-64,281,107
494328692,-2864,-488,15240,-59,225,211
494332185,-2448,-544,14880,-99,234,186
494335632,-2836,-468,15216,-14,229,287
494339102,-2668,-528,14948,-145,257,62
494342572,-2792,-452,15084,52,168,292
494345955,-2544,-340,14868,-105,335,111
494349512,-2788,-392,15040,10,206,158
494352895,-2736,-484,15180,35,306,168
494356321,-2664,-488,14916,68,129,229
494359710,-2632,-408,14776,-64,325,133
494363132,-2776,-544,14992,-64,215,178
494366602,-2724,-400,14996,42,183,274
494369985,-2460,-600,14864,-130,346,84
494373455,-2904,-424,14992,-18,104,235
494376925,-2444,-460,14876,-42,290,123
494380395,-2864,-500,15260,-73,203,189
494383890,-2488,-460,14828,-69,249,112
494387335,-3172,-408,15108,34,251,269
494390718,-2324,-664,14612,28,199,168
494394102,-2944,-372,15036,-62,301,149
494397572,-2696,-420,14936,2,118,265
494400868,-2664,-272,15040,-79,235,136
494404338,-2724,-504,14868,-48,133,301
494407833,-2368,-512,14732,-144,257,23
494411278,-2948,-456,15172,-16,240,274
494414748,-2412,-480,14952,-29,247,100
494418218,-2688,-460,14856,-50,348,55
494421601,-2860,-456,15016,38,98,319
494424898,-2524,-404,14744,-91,244,118
494428368,-2800,-364,14804,-29,242,199
494431861,-2560,-576,14760,-127,272,76
494435308,-2800,-396,15084,-5,194,304
494438691,-2588,-432,14780,-141,231,114
494442248,-2640,-496,14872,101,87,382
494445631,-2464,-524,14880,-169,336,16
494449101,-2856,-456,15260,109,63,366
494452484,-2312,-516,14448,-50,388,68
494455871,-2804,-420,15100,45,64,330
494459231,-2624,-384,14616,-108,423,-22
494462721,-3056,-448,15256,27,80,360
494466017,-2388,-396,14508,-209,383,-45
494469574,-3184,-524,15556,5,160,347
494472871,-2196,-388,14384,-142,214,101
494476427,-3244,-424,15388,-51,331,153
494479897,-2180,-588,14520,-94,228,148
494483392,-3152,-412,15088,-16,265,112
494486837,-2320,-452,14748,-21,306,155
494490312,-3008,-328,15192,-80,220,100
494493777,-2592,-492,14820,29,280,224
494497161,-2660,-424,14752,-183,232,44
494500631,-3020,-436,15160,42,135,290
494504014,-2520,-428,14872,-142,240,161
494507595,-2804,-472,15268,1,151,227
494510867,-2572,-468,14688,-25,262,207
494514337,-2712,-444,15080,-29,237,121
494517807,-2600,-412,14968,-14,252,235
494521277,-2852,-352,14872,-48,216,159
494524747,-2436,-500,14688,-12,273,93
494528130,-2888,-408,15100,-118,260,136
494531691,-2656,-356,14884,-14,159,213
494535182,-2884,-432,15184,-130,369,77
494538627,-2752,-532,14996,-20,129,245
494542097,-2884,-228,14924,-134,321,72
494545567,-2708,-504,14944,-4,175,289
494548950,-2576,-416,14888,-89,310,48
494552334,-2916,-424,15176,32,174,290
494555717,-2520,-440,14852,-32,213,169
494559265,-2480,-508,14572,-71,350,113
494562657,-3112,-364,15300,-9,107,321
494566040,-2084,-552,14408,-85,288,157
494569510,-3276,-364,15336,-19,142,332
494572980,-2200,-564,14632,-82,205,153
494576450,-3196,-368,15340,-11,197,293
494579920,-2132,-448,14672,27,136,224
494583328,-2876,-452,15260,-110,441,-13
494586860,-2412,-452,14704,72,143,301
494590243,-2708,-464,15120,-136,427,-77
494593800,-2148,-444,14600,70,162,395
494597183,-2944,-276,15044,-181,300,-26
494600740,-2424,-556,14816,72,147,352
494604123,-2824,-404,14896,-195,295,25
494607618,-2604,-428,14772,-14,149,244
494611063,-2544,-468,14920,-108,352,119
494614620,-2728,-496,15192,20,94,285
494617917,-2556,-404,14720,-27,341,143
494621387,-2784,-552,15148,-6,232,197
494624770,-2540,-560,14716,69,185,220
494628153,-2508,-444,14820,-165,380,35
494631627,-2996,-372,15084,19,116,297
494635031,-2444,-480,14892,19,219,254
494638390,-2740,-348,14868,-122,296,97
494641860,-2748,-500,15128,37,147,262
494645243,-2452,-436,14684,-134,319,114
494648800,-2780,-452,15040,-77,200,214
494652270,-2724,-324,14880,16,255,216
494655653,-2780,-352,14832,-40,215,114
494659170,-2872,-552,15012,80,268,240
494662541,-2664,-412,14872,-154,302,74
494665976,-2720,-552,15036,-47,260,153
494669446,-2828,-448,15216,-4,226,280
494672829,-2540,-532,14772,-97,216,109
494676299,-2936,-468,15284,27,212,252
494679683,-2440,-496,14768,-95,195,118
494683177,-3032,-348,15196,52,101,320
494686536,-2380,-572,14688,-57,300,138
494690006,-2816,-552,15116,-33,197,153
494693476,-2480,-420,14680,33,279,227
494696859,-2716,-316,15060,-106,249,72
494700329,-3020,-444,15216,121,103,395
494703799,-2576,-420,14792,-294,423,-106
494707467,-2804,-612,15360,81,21,383
494710739,-2348,-420,14536,-154,364,79
494714209,-3104,-492,15480,20,70,313
494717506,-2428,-440,14648,-79,340,84
494720889,-2880,-420,15180,-27,163,227
494724359,-2768,-436,14836,36,220,200
494727742,-2596,-472,14740,-60,235,180
494731212,-2732,-408,15044,-70,174,158
494734707,-2800,-380,15120,-78,357,112
494738152,-2592,-508,14976,-62,180,187
494741622,-2672,-440,15024,-38,283,190
494745092,-2676,-424,14948,-120,225,168
494748649,-2524,-432,14852,-55,210,178
494752119,-2828,-460,15132,9,262,231
494755415,-2468,-512,14904,-48,228,86
494758846,-2936,-248,15064,93,232,246
494762185,-2332,-548,14784,-58,300,44
494765600,-3036,-340,14968,-20,200,280
494769035,-2360,-588,14692,-105,378,99
494772505,-3136,-340,15220,-64,142,223
494775975,-2476,-544,14880,-50,302,158
494779445,-2864,-280,15096,-98,165,164
494782940,-2692,-368,14980,20,202,242
494786298,-2788,-404,14976,-100,255,132
494789855,-2788,-536,14936,101,95,330
494793238,-2840,-264,14776,-127,419,4
494796622,-2772,-592,15096,-1,141,249
494800005,-2732,-372,14824,-79,303,122
494803475,-2476,-660,14872,39,84,323
494806796,-2724,-412,14728,-104,356,66
494810241,-2636,-428,14884,-33,192,251
494813711,-2652,-484,14988,-49,227,185
494817181,-2788,-480,14960,-5,287,204
494820565,-2432,-464,14900,22,157,251
494823948,-2716,-496,15016,48,260,232
494827331,-2516,-512,14840,-23,235,140
494830801,-2916,-356,15052,48,174,243
494834209,-2456,-516,14764,-190,355,58
494837654,-2900,-412,15164,-115,254,85
494841124,-2652,-396,15080,-14,241,212
494844594,-2684,-504,14944,-68,109,243
494848064,-2744,-420,14888,-11,243,189
494851534,-2720,-576,14992,-72,231,126
494855004,-2612,-408,14900,-47,173,182
494858521,-2908,-516,15320,137,196,342
494861944,-2164,-492,14396,-225,371,-60
494865505,-3268,-404,15744,96,148,322
494868919,-2044,-544,14356,-207,429,-43
494872441,-3260,-444,15620,-53,155,240
494875911,-2220,-580,14560,-105,369,97
494879381,-3092,-472,15200,-110,205,144
494882962,-2472,-504,14836,-7,204,206
494886321,-2848,-300,15060,-109,255,111
494889878,-2640,-548,14960,24,200,179
494893261,-2788,-520,14996,6,259,213
494896558,-2480,-488,14840,-44,206,133
494900028,-2832,-408,15000,14,205,321
494903411,-2452,-516,14632,-80,188,178
494906905,-3000,-480,15048,-11,165,229
494910351,-2516,-608,14880,-78,227,180
494913821,-2784,-324,14900,-74,172,180
494917291,-2512,-576,14936,22,280,266
494920674,-2652,-420,14816,-101,199,130
494924231,-2612,-396,14928,66,292,189
494927614,-2728,-364,14868,-128,258,62
494931084,-2664,-352,14912,23,145,252
494934492,-2628,-344,14676,-144,342,89
494937937,-2912,-492,15400,30,99,342
494941234,-2444,-332,14748,11,268,240
494944617,-2840,-496,15184,-68,162,217
494948087,-2488,-424,14900,-16,208,211
494951557,-2668,-544,15140,-126,232,160
494955114,-2736,-348,14912,-45,171,173
494958632,-2712,-492,15176,61,313,196
494961967,-2564,-432,14592,-5,162,217
494965350,-2604,-592,14856,-85,464,-47
494968824,-2612,-492,14872,45,99,391
494972152,-2404,-516,14788,-150,342,-4
494975587,-3136,-436,15244,-11,195,302
494979057,-2388,-480,14736,-137,187,153
494982638,-3044,-412,15128,26,140,321
494985997,-2512,-472,14768,11,236,119
494989380,-2772,-452,15172,-46,246,139
494992850,-2592,-504,14728,62,237,281
494996233,-2628,-360,14680,-146,293,25
494999703,-2772,-436,14944,17,277,244
495003087,-2856,-328,14836,-123,207,143
495006647,-2724,-524,14928,-5,166,237
495010051,-2532,-364,14836,-118,324,116
495013583,-2864,-496,15204,-55,142,245
495017053,-2788,-388,14968,-27,290,154
495020523,-2652,-496,15008,-5,236,233
495023907,-2808,-412,14936,31,218,172
495027290,-2480,-440,14908,-66,322,151
495030760,-2684,-352,14704,-42,173,208
495034254,-2648,-540,14924,-4,294,161
495037613,-2740,-380,14916,-155,233,148
495041170,-2860,-356,14964,50,167,302
495044553,-2484,-628,14844,-178,399,33
495048023,-3068,-424,15308,-39,88,269
495051406,-2396,-420,14628,-40,313,149
495054876,-2976,-420,15088,-47,167,180
495058447,-2472,-564,14788,7,281,135
495061643,-2884,-480,15024,-41,250,189
495065113,-2472,-468,14784,15,215,213
495068496,-2768,-388,14928,-108,315,196
495072056,-2564,-516,14964,24,109,326
495075475,-2608,-300,14732,-83,325,94
495078819,-2880,-488,15172,-54,89,267
495082227,-2476,-452,14724,-44,276,162
495085673,-2716,-556,15200,-109,284,182
495089229,-2772,-436,14896,38,121,268
495092613,-2656,-488,14896,-75,366,67
495095996,-2708,-536,15060,127,152,312
495099466,-2636,-412,14888,-127,274,43
495102936,-2600,-416,14824,4,210,306
495106236,-2628,-436,14984,-165,307,0
495109640,-2520,-612,14944,138,72,458
495112999,-2540,-444,14804,-210,331,-69
495116556,-2632,-544,15032,66,76,356
495119852,-2512,-448,14748,-195,369,-15
495123409,-2964,-372,15260,130,44,382
495126792,-2572,-472,14808,-7,367,157
495130175,-2720,-452,14908,-64,210,136
495133670,-2692,-404,14896,-11,265,189
495137115,-2804,-364,14808,-107,235,129
495140672,-2684,-420,14912,-30,118,254
495144142,-2756,-504,15016,-100,326,126
495147699,-2628,-472,14896,-39,140,223
495151169,-2636,-448,14852,-66,276,148
495154639,-2932,-440,15180,-36,258,146
495158156,-2612,-516,14868,27,214,241
495161492,-2768,-380,15240,6,292,134
495164789,-2692,-452,14836,20,133,271
495168172,-2668,-388,14800,-32,289,132
495171642,-2512,-432,14604,-27,156,231
495175115,-2588,-468,15040,-176,346,57
495178617,-2696,-512,14976,28,200,357
495181990,-2620,-348,14832,-156,229,107
495185522,-2880,-488,15224,31,228,247
495188905,-2724,-408,14756,3,169,206
495192202,-2612,-484,15028,-32,280,139
495195672,-2524,-472,14828,21,170,245
495199055,-2664,-424,14796,-91,370,7
495202351,-2640,-548,14984,36,213,305
495205735,-2392,-444,14576,-187,287,46
495209229,-3088,-368,15256,100,174,372
495212675,-2368,-428,14672,-97,187,147
495216145,-2936,-332,15196,18,155,249
495219528,-2420,-456,14632,-71,240,150
495222998,-2868,-556,15268,-14,275,81
495226381,-2616,-512,14892,81,252,294
495229764,-2604,-484,14756,-111,267,43
495233259,-2784,-496,15012,101,163,350
495236704,-2544,-324,14568,-92,237,106
495240174,-2708,-504,15052,-64,214,165
495243644,-2724,-368,14892,-40,215,254
495247114,-2468,-516,14784,-94,218,106
495250584,-2976,-444,15184,25,262,261
495253968,-2396,-556,14760,-80,242,102
495257485,-2956,-424,15140,81,223,302
495260821,-2376,-460,14588,11,189,179
495264204,-3148,-296,15300,23,204,195
495267587,-2280,-544,14668,-7,222,268
495270971,-2796,-444,14892,-158,223,82
495274441,-2676,-428,15088,79,150,416
495277824,-2372,-492,14576,-197,291,-12
495281419,-2956,-440,15332,99,96,342
495284702,-2412,-496,14824,-113,236,111
495288234,-2720,-568,15068,18,180,248
495291617,-2704,-500,14868,-96,304,109
495295087,-2824,-500,15132,83,111,276
495298470,-2704,-392,14928,-16,284,199
495301940,-2492,-460,14884,-126,313,27
495305410,-2756,-368,14968,-23,240,218
495308905,-2644,-488,14976,-28,239,219
495312350,-2640,-504,14976,-12,142,244
495315820,-2688,-416,15028,-56,314,168
495319290,-2676,-464,15036,-18,98,262
495322674,-2468,-512,14680,-56,313,138
495326144,-3192,-312,15420,84,135,286
495329527,-2108,-440,14536,-19,280,148
495333021,-2940,-364,15088,-23,277,196
495336467,-2252,-568,14588,50,128,289
495339850,-2764,-424,14912,-87,329,109
495343320,-2728,-424,14756,12,90,316
495346617,-2496,-428,14824,-122,357,63
495350087,-2856,-336,15248,-77,174,293
495353557,-2384,-488,14728,-55,273,148
495357074,-2880,-456,15324,34,222,310
495360410,-2576,-560,14868,11,238,105
495363793,-2888,-456,15072,70,264,240
495367176,-2880,-484,14908,-52,239,114
495370646,-2728,-488,15016,67,174,354
495374030,-2984,-280,14916,-190,295,109
495377586,-2452,-676,15036,33,178,271
495380973,-2724,-412,14908,-146,280,208
495384569,-2600,-492,14868,-31,158,197
495387996,-2832,-444,15268,6,210,235
495391293,-2704,-560,14872,-6,113,265
495394676,-2544,-508,14800,-36,295,57
495398059,-2868,-404,15148,140,129,401
495401529,-2096,-596,14516,-173,343,-81
495405086,-2912,-284,15188,26,152,386
495408494,-2416,-496,14752,-80,229,152
495411939,-2900,-440,15056,7,164,242
495415236,-2512,-296,14824,-135,280,167
495418793,-2784,-524,15212,-15,156,249
495422263,-2760,-484,14980,-104,350,86
495425733,-2840,-560,15072,-18,188,212
495429203,-2868,-340,15076,17,303,95
495432524,-2548,-456,15092,35,183,261
495435882,-2784,-508,15000,-33,256,109
495439352,-2708,-404,14964,-69,260,235
495442822,-2684,-460,15072,-61,171,185
495446292,-2800,-444,14984,-69,279,205
495449762,-2680,-380,14872,-102,269,172
495453319,-2588,-460,14920,-49,149,261
495456838,-2760,-476,15016,-27,322,139
495460259,-2532,-588,15028,82,141,247
495463642,-2784,-420,15072,37,237,191
495467026,-2588,-448,14780,5,189,236
495470322,-2660,-452,15184,-145,324,9
495473705,-2952,-352,15108,-10,202,335
495477175,-2348,-568,14764,-187,300,-37
495480732,-3196,-528,15412,136,145,405
495484229,-2076,-432,14368,-107,220,105
495487794,-3120,-376,15584,69,92,359
495491055,-2068,-568,14504,-30,230,178
495494525,-3068,-464,15352,34,111,233
495497909,-2192,-604,14476,90,283,217
495501292,-2960,-332,15012,-96,210,131
495504762,-2340,-516,14748,81,243,262
495508170,-2712,-316,14764,-202,259,52
495511615,-2668,-628,15188,-46,263,113
495515085,-2740,-268,15040,-61,135,341
495518555,-2504,-432,14860,-123,230,106
495522112,-2860,-400,15208,11,219,273
495525495,-2536,-636,14996,-20,276,93
495528878,-2792,-376,15124,63,198,213
495532286,-2540,-620,14824,27,190,246
495535645,-2820,-480,15004,-106,210,129
495539202,-2956,-220,15024,-34,241,222
495542672,-2720,-404,14968,-111,213,120
495546228,-2816,-484,15124,-13,264,185
495549698,-2524,-464,14860,-92,218,192
495553168,-2684,-548,15052,-65,254,117
495556642,-2564,-376,14620,-52,224,288
495560169,-2696,-296,14928,-50,216,124
495563578,-2684,-468,14788,-23,306,117
495567048,-2904,-488,15004,-19,171,209
495570518,-2540,-496,14840,41,182,235
495573902,-2552,-528,14840,-134,339,43
495577372,-2944,-376,15028,26,89,310
495580668,-2616,-380,14824,-143,347,98
495584161,-2884,-404,15128,-17,123,232
495587612,-2580,-388,14760,-131,327,82
495591113,-3100,-452,15412,52,78,286
495594375,-2348,-472,14692,-85,347,52
495597758,-3256,-280,15272,19,270,169
495601141,-2292,-644,14648,123,117,296
495604611,-3004,-312,15128,-95,309,131
495608106,-2452,-496,14840,-76,194,193
495611551,-2796,-576,15068,-37,208,228
495615021,-2676,-596,14988,-44,147,219
495618491,-2588,-420,14840,-53,207,141
495621961,-2872,-440,15012,-40,248,232
495625431,-2576,-608,14916,15,177,162
495628814,-2748,-388,15056,-6,248,212
495632222,-2564,-372,14812,-41,227,165
495635668,-2564,-608,14832,-45,294,113
495639138,-2992,-264,15096,-31,288,242
495642608,-2500,-432,14644,-90,207,121
495646078,-2916,-404,15156,-106,316,152
495649634,-2528,-516,14880,-27,122,275
495653104,-2692,-368,14712,-141,204,87
495656578,-2820,-372,15116,27,154,335
495660006,-2412,-472,14764,-32,230,162
495663428,-2844,-400,15200,44,247,237
495666811,-2588,-388,14848,51,209,200
495670194,-2720,-452,14808,-40,233,188
495673664,-2524,-572,14676,-47,252,167
495677134,-2884,-376,15032,-96,157,210
495680604,-2544,-620,15068,12,191,330
495684011,-2556,-312,14708,-147,237,66
495687457,-2716,-500,15092,21,259,254
495690844,-2560,-428,14812,-65,229,160
495694346,-2624,-404,14948,6,214,153
495697607,-2872,-440,15120,-81,243,195
495701077,-2472,-544,14820,-17,199,154
495704547,-2656,-440,15000,-58,321,127
495708042,-2700,-444,14820,-55,164,225
495711487,-2584,-540,14844,-79,341,87
495714870,-3004,-300,14984,13,93,339
495718167,-2308,-672,14672,-116,257,54
495721637,-2816,-444,15132,-103,240,191
495725194,-2696,-376,14968,5,122,222
495728490,-2672,-484,14812,37,288,221
495731898,-2544,-480,14896,-58,262,116
495735343,-2840,-364,14952,71,234,201
495738727,-2472,-376,14788,-63,265,161
495742197,-2840,-312,14932,-49,139,259
495745667,-2440,-656,14984,-46,323,160
495749137,-2824,-340,15016,-37,130,264
495752607,-2484,-628,14792,-89,309,117
495756077,-2868,-364,15272,-17,173,237
495759595,-2220,-524,14832,-61,237,188
495763017,-3172,-416,15168,40,201,321
495766400,-2132,-480,14688,40,124,218
495769783,-2848,-412,15088,-61,390,49
495773166,-2444,-480,14800,-71,247,157
495776636,-2756,-360,14928,-99,337,61
495780020,-2816,-484,15204,81,207,291
495783426,-2576,-512,14668,-90,198,118
495786873,-2892,-384,15096,14,204,270
495790256,-2640,-536,14944,-148,273,62
495793726,-3012,-408,15328,-46,180,311
495797231,-2556,-476,14964,-33,265,188
495800666,-2672,-464,15036,-42,238,117
495804136,-2576,-440,14792,-9,267,256
495807544,-2924,-360,14996,-33,213,117
495810989,-2580,-540,14812,-137,352,72
495814459,-2892,-452,15192,-48,133,244
495817929,-2504,-448,14688,-101,255,118
495821486,-2992,-436,15204,-161,308,116
495825043,-2464,-520,14776,-11,109,261
495828513,-2716,-428,14956,-55,375,83
495831921,-2576,-528,14848,-26,213,152
495835366,-2864,-388,14896,2,219,214
495838663,-2528,-504,14896,-32,282,159
495842133,-2588,-468,14720,-3,147,271
495845516,-2656,-404,14840,-158,387,49
495848986,-2820,-424,15048,50,94,301
495852282,-2464,-584,14820,-56,335,93
495855666,-2912,-352,15076,-103,148,257
495859271,-2496,-452,14864,-4,230,190
495862606,-2836,-432,14992,-45,222,197
495866076,-2672,-292,14692,-26,220,167
495869546,-2696,-424,14936,5,309,149
495872842,-2588,-484,14800,-44,237,129
495876312,-2976,-324,15044,-30,256,187
495879782,-2456,-668,14952,-47,305,94
495883189,-2820,-496,15004,-19,137,290
495886635,-2548,-452,14832,-127,305,145
495890192,-2808,-484,15128,-93,193,161
495893662,-2680,-540,15064,33,244,185
495897049,-2648,-436,14912,-66,194,174
495900550,-2832,-492,15076,87,115,307
495903899,-2572,-484,14868,-107,405,30
495907393,-2944,-404,15228,49,133,282
495910752,-2540,-388,14704,-157,360,75
495914222,-2944,-464,15344,-55,161,225
495917692,-2524,-404,14664,-92,224,170
495921162,-3004,-472,15248,-104,251,102
495924719,-2372,-508,14760,-59,173,179
495928189,-2784,-424,14956,-91,321,87
495931575,-2616,-432,14952,-16,110,293
495935066,-2808,-332,14944,-6,358,48
495938338,-2460,-428,14844,30,97,291
495941635,-2828,-420,14940,-40,271,139
495945105,-2620,-588,14892,9,172,313
495948401,-2496,-524,14944,-178,321,12
495951871,-2656,-524,14992,37,149,363
495955255,-2496,-420,14740,-180,263,42
495958774,-2812,-484,15172,83,169,339
495962108,-2568,-372,14952,-84,262,48
495965491,-3060,-424,15144,43,99,307
495968788,-2516,-500,14832,-69,368,121
495972258,-2956,-348,15108,1,147,209
495975554,-2492,-532,14772,-68,370,63
495978937,-2900,-368,14980,-57,95,280
495982344,-2604,-540,14984,-22,262,143
495985791,-2748,-432,14980,-64,167,294
495989261,-2604,-516,14844,-117,276,59
495992731,-2644,-492,14992,-28,208,293
495996201,-2748,-384,14736,-55,221,118
495999671,-2764,-444,15188,46,227,203
496003089,-2544,-464,14976,35,146,272
496006441,-2540,-412,14844,-50,276,88
496009845,-2692,-476,14812,-53,250,221
496013290,-2596,-440,14948,-108,196,151
496016847,-2564,-496,14952,59,212,322
496020230,-2516,-396,14828,-200,264,56
496023700,-2856,-312,14888,72,138,312
496027084,-2456,-532,14812,-105,278,136
496030640,-2944,-596,15252,82,62,337
496033961,-2296,-496,14648,-90,354,115
496037407,-3144,-476,15512,77,54,316
496040703,-2104,-428,14520,-40,334,165
496044173,-3160,-224,15136,-114,235,65
496047643,-2412,-592,14908,-10,249,191
496051113,-2972,-476,14996,-88,222,141
496054583,-2428,-636,14700,-70,196,139
496058156,-2884,-416,15008,-122,275,189
496061610,-2512,-496,15004,-86,218,95
496064993,-2960,-572,15228,52,222,259
496068377,-2424,-540,14772,-102,292,109
496071933,-2936,-448,15152,71,166,249
496075317,-2344,-480,14768,-76,369,62
496078700,-2896,-376,15028,-76,165,252
496082193,-2596,-456,14880,-34,250,176
496085640,-2492,-572,14960,-62,174,208
496089121,-2696,-436,14836,-131,228,139
496092671,-2932,-472,15088,10,238,233
496096050,-2416,-412,14808,-15,185,194
496099520,-2788,-412,14984,66,211,307
496102907,-2552,-480,14716,-32,201,195
496106412,-2920,-320,14764,7,206,184
496109694,-2580,-416,14684,-125,352,42
496113140,-3028,-492,15344,37,62,343
496116436,-2300,-580,14788,-86,320,164
496119906,-2880,-356,15164,-93,208,113
496123376,-2412,-596,14764,1,193,226
496126673,-2708,-360,15188,-74,238,129
496130143,-2596,-668,15084,52,208,189
496133550,-2704,-432,15100,-88,289,149
496136996,-2788,-324,14924,-20,172,194
496140466,-2524,-480,14764,-11,326,195
496143936,-2864,-416,15096,-125,223,97
496147406,-2908,-372,14776,-49,221,237
496150876,-2540,-552,14944,-55,231,136
496154346,-2648,-528,15040,6,81,302
496157604,-2628,-488,14880,-164,347,78
496161026,-2976,-412,15172,12,126,290
496164409,-2520,-496,14612,-72,343,70
496167792,-2908,-508,15292,26,89,300
496171089,-2368,-628,14840,-27,265,122
496174559,-3104,-432,15096,-250,466,-138
496178202,-2172,-632,14744,110,100,337
496181695,-2736,-364,14936,-197,439,11
496185142,-3024,-468,15344,76,71,384
496188439,-2592,-504,14860,-74,276,151
496191909,-2552,-408,14924,-129,298,102
496195465,-2512,-544,14932,58,104,314
496198849,-2748,-456,15060,-87,292,138
496202319,-2612,-612,14816,-44,214,117
496205789,-2936,-384,15100,10,285,185
496209215,-2308,-440,14724,-68,275,107
496212642,-2908,-364,15036,-65,206,215
496216112,-2552,-368,14740,-143,346,112
496219669,-2984,-416,15148,-26,157,217
496223139,-2324,-456,14784,-111,279,160
496226695,-2964,-332,15192,-78,199,152
496230165,-2516,-568,14828,-5,253,135
496233573,-2792,-428,15084,-120,262,145
496237105,-2724,-464,14956,70,116,283
496240489,-2476,-408,14792,-41,374,58
496243872,-3028,-376,15172,21,100,323
496247255,-2452,-428,14680,-60,295,106
496250725,-2740,-368,15136,-142,194,176
496254282,-2676,-396,15076,-69,186,169
496257800,-2744,-508,15048,-13,281,196
496261222,-2624,-428,15036,-57,149,191
496264692,-2708,-420,14964,-4,287,165
496268075,-2604,-564,14852,-34,220,171
496271545,-2848,-388,14984,-17,250,176
496275015,-2596,-372,14820,-10,257,217
496278485,-2680,-300,14804,-66,215,142
496281980,-2848,-380,15052,-77,306,162
496285425,-2624,-512,15012,45,102,274
496288808,-2508,-388,14936,-100,274,89
496292278,-2776,-532,15196,-49,142,298
496295748,-2480,-472,14708,-109,233,84
496299218,-2884,-412,15108,-38,265,175
496302688,-2788,-528,14996,19,138,237
496306072,-2644,-488,14932,26,272,186
496309496,-2412,-500,14892,-151,283,43
496312925,-2968,-440,15092,110,23,391
496316308,-2252,-444,14580,-197,381,25
496319778,-3180,-344,15344,55,19,355
496323075,-2292,-452,14708,-63,304,179
496326545,-2832,-500,15024,-74,197,130
496330015,-2364,-672,14724,11,295,154
496333422,-3004,-376,15104,-152,253,77
496336868,-2540,-568,14892,98,163,260
496340251,-2724,-332,15068,-37,246,219
496343721,-2692,-432,14772,-13,229,123
496347191,-2660,-340,14840,-38,251,258
496350661,-2720,-444,14924,-134,239,144
496354218,-2540,-580,14836,-4,213,249
496357649,-2672,-500,15028,-123,292,167
496361158,-2564,-448,15020,-5,149,222
496364541,-2620,-524,14900,-8,327,127
496367924,-2728,-476,15000,12,97,284
496371221,-2680,-496,15044,27,292,183
496374604,-2720,-536,15032,-43,226,214
496378074,-2468,-436,14860,-84,320,33
496381461,-2940,-292,15264,-54,268,186
496384952,-2796,-436,15024,23,155,221
496388311,-2576,-504,14864,-64,292,185
496391781,-2820,-420,15060,-29,200,262
496395251,-2392,-568,14764,-115,270,147
496398807,-2768,-432,15056,9,246,290
496402104,-2540,-544,14844,-18,181,153
496405574,-2952,-408,15156,69,240,202
496408980,-2528,-568,14768,-6,219,137
496412375,-2840,-460,15052,-48,284,136
496415810,-2380,-484,14652,-55,250,247
496419280,-2960,-396,15060,-173,256,72
496422750,-2464,-452,14780,29,171,338
496426134,-2672,-412,14844,-160,271,35
496429604,-2768,-496,15144,22,162,241
496433011,-2592,-436,14720,-155,321,38
496436457,-3052,-432,15288,136,36,409
496439840,-2384,-524,14700,-152,428,29
496443310,-3272,-312,15328,70,74,314
496446607,-2076,-544,14352,-110,367,51
496450077,-3204,-328,15252,-161,290,63
496453547,-2648,-492,14888,10,181,216
496456979,-3112,-356,15256,-135,286,128
496460487,-2408,-564,14932,-31,219,116
496463957,-3076,-304,15192,-133,329,103
496467513,-2748,-588,14892,19,154,217
496470897,-2528,-512,14720,-113,389,59
496474367,-2964,-356,15136,63,158,294
496477750,-2436,-464,14736,-110,310,65
496481223,-2904,-484,15132,-63,243,159
496484714,-2724,-544,15008,-106,143,205
496488247,-2780,-372,15004,55,218,320
496491630,-2484,-504,14728,-173,287,64
496495100,-2956,-556,15288,24,151,301
496498483,-2340,-464,14736,-134,383,71
496501953,-2816,-348,15076,0,144,250
496505250,-2496,-560,14792,-26,333,123
496508743,-2716,-484,14916,70,98,281
496512020,-2492,-400,14736,-66,362,104
496515521,-2872,-408,15032,18,169,258
496518869,-2456,-596,14788,-128,244,106
496522426,-3040,-432,15372,24,175,327
496525809,-2444,-492,14852,-198,270,11
496529279,-3172,-408,15300,76,121,354
496532687,-2388,-552,14752,-132,298,82
496536133,-3056,-372,15300,7,225,212
496539429,-2420,-520,14960,-15,351,143
496542899,-2888,-464,15052,-56,281,55
496546282,-2472,-512,14760,-1,296,176
496549666,-2812,-336,14808,-167,268,50
496553136,-2860,-588,15104,99,132,363
496556522,-2520,-452,14940,-161,337,-6
496560049,-2876,-480,15184,19,134,317
496563372,-2416,-564,14708,-102,388,34
496566842,-2956,-424,15184,32,54,342
496570139,-2248,-436,14664,-93,375,42
496573522,-2796,-496,15332,9,144,252
496576818,-2592,-344,14800,47,252,193
496580202,-2668,-524,14980,-110,325,133
496583783,-2676,-464,14776,-57,222,153
496587228,-2908,-432,15180,-8,226,282
496590612,-2556,-436,14872,-14,138,210
496594082,-2736,-352,15012,-62,227,198
496597552,-2508,-536,14904,-19,212,250
496601022,-2616,-484,15028,-50,248,125
496604492,-2896,-396,15212,65,264,236
496607898,-2336,-460,14640,19,177,214
496611258,-3056,-324,15196,43,218,240
496614641,-2204,-484,14732,39,120,299
496618059,-2784,-456,14760,-156,280,81
496621495,-2736,-472,15108,53,142,385
496624878,-2476,-444,14572,-188,276,11
496628348,-2824,-440,14992,77,161,330
496631756,-2460,-436,14748,-103,263,87
496635201,-2992,-384,15456,140,127,320
496638671,-2328,-472,14668,-84,272,110
496642141,-3100,-452,15360,62,110,268
496645524,-2100,-624,14608,47,268,207
496648908,-2752,-392,15020,-185,276,62
496652378,-2504,-440,14776,77,219,297
496655761,-2696,-520,14852,-214,312,17
496659279,-2768,-484,14996,21,148,317
496662614,-2560,-568,15056,-55,243,118
496666084,-2748,-508,14940,-21,171,235
496669554,-2568,-320,14676,0,251,229
496672851,-2728,-632,15244,-51,245,89
496676234,-2512,-484,14916,121,203,323
496679704,-2512,-380,14716,-131,240,85
496683198,-3004,-480,15220,-29,207,219
496686644,-2412,-436,14608,-109,230,213
496690201,-3036,-292,15332,-84,194,147
496693671,-2472,-536,14876,24,197,333
496697054,-2596,-508,14904,-142,242,101
496700611,-2636,-588,14988,77,201,323
496703994,-2652,-496,14936,-94,300,122
496707487,-2404,-652,14960,93,94,319
496710760,-2736,-288,14764,-128,361,43
496714230,-2612,-496,14832,-35,126,238
496717704,-2820,-340,14768,-25,362,113
496721205,-2684,-512,15100,-50,164,236
496724640,-2664,-372,14812,-49,262,150
496728110,-2740,-432,15004,-45,286,193
496731584,-2692,-484,14936,-60,131,180
496735075,-2740,-432,15056,7,305,180
496738347,-2556,-564,14912,3,162,218
496741643,-2584,-508,15008,-55,363,89
496745027,-2492,-436,14668,49,201,229
496748410,-2744,-484,14972,-133,348,-12
496751967,-2808,-204,14864,6,179,310
496755263,-2724,-360,14872,-116,225,51
496758781,-2716,-424,15024,18,155,306
496762116,-2728,-268,14984,-178,311,82
496765586,-2792,-540,15200,81,114,354
496768970,-2648,-372,14808,-70,357,90
496772353,-2808,-352,15040,15,127,296
496775736,-2572,-560,14784,-25,369,97
496779119,-2868,-352,14892,-17,188,215
496782614,-2548,-516,14900,19,275,229
496785973,-2620,-420,14724,-149,304,83
496789443,-2940,-532,15260,-21,167,252
496792913,-2640,-476,14872,-173,350,72
496796383,-2844,-364,15112,-17,110,270
496799853,-2536,-468,14952,-67,209,156
496803323,-2832,-472,15108,-17,256,192
496806816,-2580,-504,14800,-56,189,159
496810263,-3040,-308,15132,-19,317,146
496813733,-2404,-508,14652,-68,252,82
496817116,-3040,-268,14920,-54,288,165
496820586,-2520,-536,14752,2,111,256
496823917,-2932,-540,15060,-127,295,41
496827352,-2648,-424,15012,-46,78,355
496830736,-2432,-404,14864,-161,226,59
496834230,-2768,-420,14976,50,241,243
496837589,-2556,-492,14864,-53,247,112
496841059,-2948,-348,15064,119,197,297
496844529,-2440,-508,14912,-78,253,115
496847999,-2652,-376,14852,9,165,264
496851295,-2532,-476,14880,-175,353,63
496854765,-2972,-428,15168,13,112,266
496858197,-2524,-548,14760,18,305,197
496861532,-2812,-440,15032,-72,166,203
496865002,-2704,-436,14968,-35,276,172
496868472,-2696,-436,14888,-135,209,155
496872029,-2668,-600,14948,2,223,183
496875325,-2756,-368,15016,-29,293,161
496878795,-2580,-436,14648,44,175,219
496882203,-2752,-492,14964,-109,375,58
496885648,-2772,-460,15100,17,134,317
496889032,-2536,-428,14768,-94,271,138
496892502,-2760,-504,15024,-18,271,222
496895972,-2624,-504,14884,-80,188,124
496899442,-2712,-404,15012,-33,232,229
496902912,-2844,-448,15120,-28,149,209
496906385,-2476,-452,14736,30,216,233
496909788,-2912,-404,15180,-30,315,156
496913235,-2392,-524,14792,-2,213,166
496916618,-2896,-312,14936,-87,298,171
496920088,-2704,-428,14768,23,120,325
496923475,-2572,-412,14908,-72,231,170
496926976,-2436,-548,14900,-61,194,244
496930411,-2648,-440,14856,-99,189,130
496933906,-2756,-376,15056,19,240,271
496937265,-2412,-620,15004,-81,262,87
496940648,-2708,-376,14936,42,184,291
496944031,-2716,-416,14884,-22,258,105
496947501,-2788,-492,14824,-13,168,233
496950971,-2732,-432,14676,-145,362,78
496954441,-2988,-432,15096,-19,124,292
496957960,-2432,-452,14788,-50,292,206
496961381,-2972,-352,15072,-10,145,296
496964851,-2360,-508,14656,-53,242,175
496968321,-2928,-424,15012,-77,301,196
496971791,-2640,-368,14944,102,115,263
496975261,-2392,-488,14828,-37,339,82
496978644,-2992,-396,15176,-27,186,189
496982139,-2368,-428,14720,-16,259,145
496985584,-3072,-280,15208,-37,274,221
496989054,-2372,-616,14912,73,127,265
496992438,-2572,-552,14892,-132,395,89
496995908,-2572,-400,14892,31,-4,359
496999204,-2520,-496,14704,-165,337,18
497002674,-2732,-604,15084,51,32,424
497005971,-2332,-472,14520,-88,375,0
497009290,-3164,-544,15476,164,191,349
497012737,-2188,-472,14448,115,116,277
497016207,-2672,-368,15036,-91,334,110
497019677,-2476,-432,14736,33,104,297
497023060,-2524,-524,14868,-273,413,16
497026534,-2972,-444,15056,88,16,444
497029862,-2096,-456,14440,-136,345,85
497033321,-3160,-408,15468,104,129,375
497036767,-2064,-572,14348,-42,253,154
497040237,-3040,-416,15276,99,225,238
497043620,-2416,-500,14656,65,114,296
497047003,-2676,-376,14752,-85,337,85
497050387,-2752,-544,14936,40,213,219
497053770,-2480,-372,14664,-155,242,141
497057429,-3056,-524,15176,-28,319,195
497060797,-2472,-416,14812,-52,110,224
497064267,-2652,-452,14928,-73,277,133
497067737,-2620,-468,14848,15,135,294
497071120,-2736,-392,15124,1,219,186
497074416,-2536,-432,15048,56,251,262
497077800,-2676,-424,14868,-76,257,78
497081186,-2844,-356,14928,68,190,283
497084591,-2652,-380,14844,-204,328,22
497088036,-3008,-508,15256,78,92,348
497091333,-2400,-496,14780,-158,390,52
497094803,-3036,-444,15164,-58,142,273
497098273,-2588,-444,14728,-59,333,130
497101743,-2824,-476,14984,-129,178,107
497105299,-2820,-448,15012,23,136,270
497108706,-2452,-528,14784,-35,268,168
497112153,-2840,-336,14856,39,180,203
497115536,-2720,-460,14896,16,272,240
497118919,-2848,-444,14968,-56,155,179
497122389,-2280,-404,14644,-108,249,128
497125946,-2920,-496,15300,-65,262,204
497129419,-2388,-524,15004,-11,135,257
497132933,-2736,-480,14884,-74,301,156
497136356,-2692,-564,15000,-33,157,247
497139826,-2692,-464,14944,-12,311,157
497143296,-2800,-368,15000,-52,186,204
497146766,-2588,-416,14756,44,238,197
497150149,-2600,-544,15024,-77,330,101
497153619,-2900,-288,15040,-46,178,166
497157138,-2608,-548,15024,-80,312,104
497160559,-2796,-476,15192,-17,77,338
497163942,-2408,-620,14720,-106,269,83
497167412,-2972,-436,15096,-69,252,178
497170882,-2544,-540,14760,-56,233,133
497174352,-2880,-392,15112,48,274,251
497177736,-2488,-504,15008,-40,233,129
497181209,-2712,-480,15012,9,245,209
497184527,-2648,-412,14916,-53,187,209
497187972,-2868,-376,14964,-37,152,247
497191442,-2556,-412,14676,-98,336,151
497194912,-2884,-464,15092,-60,122,227
497198382,-2524,-592,14852,0,247,185
497201679,-2696,-472,14992,-134,230,136
497205235,-2828,-504,15088,66,154,264
497208643,-2500,-392,14780,-48,237,198
497212089,-2808,-360,14956,-25,207,165
497215559,-2704,-564,14956,33,287,185
497218942,-2840,-420,14812,-113,182,167
497222499,-2548,-436,14944,13,171,293
497225882,-2604,-436,14928,-122,331,114
497229439,-2556,-516,15008,-39,120,233
497232950,-2756,-300,14932,-58,290,206
497236379,-2668,-496,14940,-72,161,180
497239849,-2740,-488,15016,9,229,187
497243145,-2568,-552,14916,-47,239,155
497246615,-2904,-332,15156,61,241,204
497249998,-2472,-592,14888,-83,338,92
497253382,-2736,-336,15076,-67,234,114
497256900,-2932,-400,15164,2,249,278
497260148,-2556,-468,14984,-50,128,258
497263618,-2880,-324,14904,-59,214,216
497267088,-2632,-508,14912,-19,188,282
497270558,-2620,-420,14940,-69,311,45
497273941,-2808,-420,15172,93,204,302
497277325,-2260,-536,14728,-125,272,22
497280795,-3204,-324,15380,136,136,372
497284289,-2104,-612,14408,-3,185,185
497287648,-2504,-312,14840,-142,300,50
497291118,-3064,-476,15052,56,92,412
497294414,-2188,-616,14704,-71,242,117
497297884,-3156,-460,15260,4,209,250
497301181,-2332,-420,14728,-7,128,256
497304564,-2992,-420,15140,-16,241,170
497308059,-2484,-424,14840,35,158,272
497311417,-2708,-400,14884,-64,317,101
497314887,-2384,-556,14644,26,256,248
497318271,-2820,-404,15096,-130,289,44
497321741,-2720,-440,15116,-31,259,222
497325211,-2872,-324,14784,-132,222,86
497328681,-2788,-424,15228,64,124,306
497332087,-2604,-452,14832,-144,340,58
497335569,-2940,-412,15236,12,96,326
497338830,-2368,-496,14912,-120,350,112
497342387,-2940,-472,15248,6,124,223
497345684,-2376,-612,14812,-26,340,89
497349067,-2792,-508,15148,-18,186,188
497352537,-2656,-356,14668,-32,211,139
497356007,-2872,-380,14940,-117,267,165
497359612,-2656,-460,14932,-46,131,255
497363034,-2656,-516,14892,-60,323,146
497366504,-2764,-440,15048,-66,150,226
497369974,-2564,-536,14892,-15,298,119
497373444,-2812,-436,15168,-37,251,217
497376914,-2552,-412,14868,-53,214,154
497380384,-2892,-420,15112,28,245,277
497383791,-2328,-476,14600,71,152,261
497387150,-2832,-404,15052,-167,418,-14
497390707,-2492,-416,14700,9,103,303
497394003,-2756,-500,15004,-151,401,-24
497397560,-2956,-392,15200,32,117,406
497400943,-2684,-568,14944,-193,350,-25
497404500,-3040,-392,15384,88,130,394
497407908,-2512,-556,14724,-146,281,3
497411267,-2892,-344,15116,39,227,273
497414650,-2600,-464,14812,-78,344,17
497418033,-2816,-448,15012,82,134,348
497421416,-2380,-440,14720,-172,473,-34
497424973,-3100,-436,15308,-24,83,293
497428356,-2336,-540,14688,-93,342,83
497431763,-2984,-376,15124,-93,137,211
497435213,-2448,-500,14820,33,277,182
497438628,-3156,-360,15524,30,186,256
497441976,-2220,-580,14652,62,151,318
497445359,-3012,-380,15184,-30,276,229
497448829,-2480,-596,14736,44,156,200
497452213,-2784,-324,15100,-67,292,167
497455683,-2576,-536,15152,41,147,224
497459114,-2512,-484,14736,-111,388,86
497462536,-2784,-460,15108,55,115,354
497465919,-2304,-352,14688,-115,278,63
497469389,-3008,-360,15096,-43,256,240
497472859,-2532,-532,14896,-73,197,135
497476329,-2796,-416,15120,19,240,206
497479712,-2424,-544,15012,20,228,202
497483120,-2808,-452,14920,55,286,149
497486479,-2396,-620,14916,-36,271,176
497489949,-2896,-304,14916,-31,205,169
497493419,-2628,-404,14928,-46,228,254
497496889,-2692,-384,14724,-85,234,115
497500359,-2712,-456,15068,15,170,274
497503742,-2476,-520,14924,-158,324,79
497507237,-2940,-512,15208,74,127,294
497510595,-2728,-440,14856,-59,307,178
497514065,-2860,-532,15344,18,220,168
497517449,-2652,-588,14848,-6,238,251
497520832,-2556,-328,14768,-31,179,175
497524302,-2912,-308,15084,-65,238,130
497527772,-2788,-444,15104,-120,306,152
497531332,-2464,-536,14896,-53,124,254
497534822,-2908,-376,15120,-89,334,126
497538272,-2420,-476,14724,-27,118,196
497541773,-2824,-460,15044,-29,284,138
497545209,-2740,-404,14964,-43,262,234
497548679,-2892,-300,15096,18,239,115
497552062,-2604,-628,14960,75,246,229
497555445,-2684,-632,14932,-200,283,-9
497558976,-2836,-312,15056,49,242,269
497562298,-2520,-488,14904,-148,330,90
497565768,-2724,-556,15200,-6,153,256
497569152,-2596,-452,14888,-98,340,137
497572622,-2804,-476,15164,-66,151,190
497576092,-2580,-420,14848,-17,299,161
497579562,-2856,-384,15064,-62,239,115
497583056,-2868,-412,15204,92,129,301
497586415,-2652,-420,14724,-202,408,-25
497589972,-3088,-388,15392,63,29,325
497593268,-2472,-576,14904,-200,412,18
497596738,-3232,-280,15320,51,33,351
497600035,-2164,-620,14476,-149,371,16
497603505,-3124,-300,15208,-67,192,201
497606999,-2452,-492,14840,-104,237,105
497610531,-3052,-416,15368,-18,251,228
497614001,-2468,-492,14864,-20,166,220
497617471,-2844,-396,14916,-60,364,68
497620855,-2652,-504,14864,-35,197,178
497624325,-2740,-436,14972,0,193,212
497627621,-2736,-352,14836,-65,195,214
497631095,-2788,-468,15020,-129,201,108
497634671,-2596,-460,14976,-79,219,254
497638118,-2776,-500,15004,-100,191,104
497641678,-2664,-444,14932,30,201,288
497645093,-2740,-436,14904,-49,326,77
497648441,-2612,-452,15056,39,147,286
497651824,-2660,-488,14808,-51,386,102
497655294,-2940,-528,15380,15,149,207
497658726,-2424,-428,14780,14,219,321
497662061,-2784,-412,15244,-110,257,54
497665531,-2680,-492,15156,96,141,385
497668914,-2372,-380,14604,-213,363,39
497672384,-2976,-400,15208,5,116,303
497675681,-2284,-604,14748,-91,317,105
497679151,-2960,-472,15136,11,116,258
497682558,-2616,-484,14740,86,264,228
497685917,-2664,-532,14984,-69,298,129
497689392,-2656,-472,14756,47,142,265
497692770,-2564,-432,14876,-99,364,112
497696240,-2836,-436,15216,-96,200,158
497699710,-2776,-340,14828,-31,267,225
497703180,-2600,-452,14988,-96,205,162
497706675,-2696,-464,15052,-7,192,191
497710034,-2888,-424,15236,-74,291,159
497713504,-2672,-452,14960,78,113,300
497716887,-2616,-460,14780,-95,355,118
497720357,-2672,-456,14892,112,67,338
497723740,-2404,-400,14672,-155,363,12
497727210,-2920,-340,15128,-50,121,303
497730680,-2536,-472,14760,-87,260,77
497734087,-3068,-340,14960,11,178,319
497737447,-2320,-408,14640,-54,219,156
497740917,-3152,-408,15264,-15,228,224
497744387,-2332,-496,14776,9,166,197
497747718,-2728,-348,14976,-22,229,198
497751153,-2524,-432,14936,14,178,240
497754536,-2764,-460,14880,-11,273,138
497758055,-2536,-464,14968,-84,345,109
497761476,-2764,-372,14792,-64,172,208
497764946,-2568,-552,14892,-59,324,153
497768416,-3004,-452,15168,-50,107,304
497771886,-2384,-484,14760,-123,266,82
497775356,-2832,-492,15188,-93,278,160
497778826,-2400,-508,14732,17,156,235
497782234,-2724,-456,15112,-50,321,130
497785680,-2776,-496,15116,26,142,295
497789063,-2568,-328,14792,-54,269,109
497792533,-2656,-528,14792,-105,325,121
497796090,-2652,-460,14796,-46,135,255
497799560,-2736,-508,15020,-24,315,160
497803030,-2696,-532,15136,-83,110,227
497806503,-2580,-368,14892,-33,213,178
497809994,-2576,-508,14940,-62,222,245
497813440,-2624,-464,14992,-15,201,192
497816910,-2892,-352,15112,-42,321,188
497820380,-2664,-604,15012,77,129,222
497823763,-2740,-500,15160,-87,313,112
497827233,-2728,-468,14936,-18,181,181
497830703,-2904,-336,15296,-68,223,176
497834196,-2552,-604,14788,-41,240,185
497837643,-2824,-504,15120,-77,160,214
497841113,-2492,-496,14884,-22,258,210
497844583,-2892,-484,15036,-36,218,201
497848088,-2392,-556,14692,-20,232,195
497851523,-3048,-412,15252,57,201,298
497854906,-2184,-604,14660,-17,250,98
497858338,-3200,-404,15424,-37,251,236
497861759,-2340,-512,14772,-143,327,-24
497865316,-3040,-556,15380,-99,226,246
497868786,-2424,-352,14700,-126,269,141
497872343,-2916,-340,15244,-22,122,272
497875813,-2364,-608,14592,-100,284,172
497879370,-3076,-492,15368,34,148,272
497882777,-2348,-504,14816,52,269,225
497886136,-2932,-312,15064,1,218,185
497889433,-2760,-524,15000,20,162,190
497892816,-2516,-564,14824,15,219,289
497896199,-2776,-320,15052,-156,247,51
497899669,-2652,-444,15020,13,149,243
497903052,-2756,-344,14916,-154,271,115
497906634,-2612,-388,14936,-15,164,225
497910079,-2740,-368,14884,-132,372,78
497913549,-2896,-468,15172,65,139,246
497916932,-2472,-500,14920,-62,318,123
497920402,-2908,-660,15192,79,235,249
497923786,-2620,-436,14744,-115,239,137
497927342,-2804,-444,15148,55,201,246
497930726,-2504,-456,14764,-141,196,160
497934306,-2956,-652,15244,28,134,240
497937666,-2508,-492,14720,-109,277,158
497941222,-2844,-452,15056,-89,172,176
497944692,-2852,-388,15088,59,222,240
497948114,-2340,-596,14736,-142,307,63
497951546,-3180,-336,15028,188,36,435
497954929,-2096,-552,14600,-44,356,44
497958362,-3072,-252,15276,15,68,338
497961609,-2280,-316,14432,-108,380,52
497965079,-3180,-296,15428,-154,170,164
497968635,-2412,-356,14528,-71,186,186
497972105,-2896,-424,15236,-57,258,204
497975575,-2512,-480,14604,42,146,271
497978959,-2752,-516,15224,-55,420,38
497982366,-2512,-416,14892,12,175,214
497985725,-2668,-460,14764,-93,362,27
497989108,-3200,-372,15252,103,100,396
497992578,-2536,-356,14796,-163,344,-21
497996135,-2956,-344,15180,34,170,368
497999518,-2408,-404,14640,-109,211,121
498003075,-2980,-488,15156,71,175,287
498006462,-2332,-488,14596,-91,194,164
498009953,-2904,-436,15120,-64,276,106
498013398,-2404,-616,14828,-10,305,157
498016868,-2804,-464,15064,-74,220,176
498020338,-2424,-304,14600,19,268,219
498023722,-2884,-440,15056,-92,269,65
498027105,-2616,-500,15028,20,213,227
498030488,-2836,-356,14952,-188,280,95
498033981,-2824,-528,14980,-49,139,244
498037428,-2712,-468,15048,-112,333,154
498040985,-2860,-360,14976,-39,109,257
498044455,-2440,-424,14880,-97,341,83
498047842,-2920,-404,15080,-2,198,200
498051256,-2540,-552,14776,46,219,194
498054605,-2776,-416,15064,-68,289,125
498058177,-2444,-436,14752,23,189,156
498061458,-2748,-356,14960,-137,348,75
498064928,-2956,-512,15208,-3,144,248
498068311,-2484,-600,14820,-133,305,84
498071781,-3040,-400,15184,24,158,319
498075164,-2400,-496,14784,-181,273,15
498078634,-3104,-400,15376,-40,271,183
498082129,-2296,-452,14424,-53,220,175
498085574,-2936,-444,15296,11,342,78
498088871,-2656,-512,14920,7,195,282
498092167,-2980,-396,14976,-62,293,53
498095551,-2612,-552,15072,24,144,347
498098934,-2460,-236,14560,-219,235,60
498102404,-2788,-496,14948,14,271,226
498105787,-2524,-504,14792,-93,168,179
498109282,-2940,-360,15144,13,195,239
498112640,-2576,-484,14876,-38,212,196
498116110,-2780,-452,15024,-15,198,172
498119580,-2496,-452,14788,-89,295,200
498123050,-2944,-444,14972,-16,166,217
498126520,-2500,-504,14880,47,255,271
498129904,-2724,-324,14856,-136,264,144
498133484,-2452,-536,14860,-27,208,207
498136930,-2884,-424,15044,-103,281,234
498140487,-2660,-536,15080,-21,118,250
498143957,-2708,-516,14812,-31,257,201
498147427,-2644,-468,15116,-141,276,63
498150901,-2852,-500,15176,90,96,329
498154233,-2688,-428,14932,-40,311,114
498157712,-2592,-452,14880,-29,186,153
498161134,-2748,-420,14936,28,276,207
498164517,-2684,-480,15000,-104,237,130
498168074,-2544,-524,15016,-4,192,223
498171457,-2840,-348,15012,-119,275,144
498175014,-2468,-536,14892,-15,170,145
498178484,-2756,-424,15096,-118,313,159
498182065,-2680,-456,14876,-31,208,165
498185510,-2656,-472,15028,37,255,219
498188894,-2712,-320,14844,-33,238,180
498192364,-2500,-432,14892,-17,238,200
498195834,-2740,-400,14976,-60,295,194
498199304,-2844,-468,15016,-115,237,112
498202860,-2552,-516,14948,44,232,267
498206247,-2692,-432,14936,-51,167,185
498209738,-2700,-588,15168,-48,257,124
498213184,-2728,-460,14948,-104,214,267
498216740,-2736,-440,15204,36,156,184
498220124,-2312,-524,14688,-22,319,176
498223594,-2984,-464,15120,-22,186,170
498227064,-2592,-440,14852,-8,284,154
498230447,-2816,-508,15024,-91,210,203
498233940,-2368,-404,14760,-73,198,175
498237387,-2808,-500,15108,-156,340,86
498240857,-2648,-488,14992,-2,138,236
498244240,-2760,-424,14872,-59,353,127
498247710,-2568,-500,15120,0,211,236
498251007,-2668,-424,14812,11,166,246
498254425,-2632,-368,14972,-88,248,108
498257908,-2604,-384,14800,41,117,303
498261243,-2500,-460,14632,-149,398,33
498264713,-3076,-284,15140,21,58,276
498268010,-2736,-392,14872,-93,316,185
498271480,-2596,-532,15104,-89,239,155
498274950,-2840,-544,15168,-54,197,194
498278420,-2724,-388,14828,-1,130,293
498281827,-2776,-428,15044,-49,222,125
498285273,-2728,-480,15024,6,219,260
498288569,-2688,-472,14924,-108,228,97
498292039,-2552,-432,14912,52,227,204
498295423,-2764,-332,14824,-123,289,153
498298979,-2696,-388,14856,-50,231,182
498302449,-2788,-404,15020,-106,253,239
498306010,-2672,-500,14880,-42,145,180
498309501,-2576,-520,14940,-75,285,140
498312946,-2892,-532,15068,-9,180,230
498316329,-2460,-432,14872,38,234,218
498319713,-2904,-368,14932,-45,276,163
498323183,-2548,-504,14960,41,160,247
498326566,-2656,-368,14900,-64,286,180
498330036,-2696,-364,15024,-60,184,189
498333529,-2476,-432,14688,-110,283,98
498336976,-3000,-416,15172,-16,180,260
498340446,-2408,-436,14816,-115,237,94
498343916,-3036,-336,15244,-18,245,285
498347386,-2552,-488,14856,-134,217,112
498350943,-2920,-444,15228,67,249,273
498354329,-2472,-616,14872,-20,283,137
498357863,-2724,-520,14948,-17,188,188
498361266,-2832,-296,14968,-65,293,114
498364736,-2452,-380,14804,-53,164,192
498368206,-2784,-444,15096,-154,384,41
498371676,-2368,-520,15004,0,126,309
498374972,-2612,-492,14760,-212,413,-49
498378529,-2704,-440,15004,59,89,406
498381850,-2488,-408,14876,-148,264,77
498385296,-2916,-432,15148,12,273,280
498388679,-2536,-588,14868,12,189,143
498392062,-2796,-456,14964,-17,388,102
498395532,-2520,-544,14972,65,137,286
498398915,-2736,-444,15008,-99,362,55
498402299,-2660,-552,14992,-42,171,268
498405769,-2756,-352,14788,-114,270,75
498409263,-2756,-540,15120,-4,271,256
498412622,-2840,-412,14932,-115,253,69
498416092,-2840,-456,14984,33,201,293
498419475,-2784,-328,15040,-100,267,100
498423032,-2716,-564,15272,153,168,335
498426502,-2480,-516,14740,-124,401,66
498429972,-2724,-352,14948,-18,155,216
498433466,-2456,-448,14856,-36,339,130
498436912,-2884,-548,15084,-61,133,216
498440382,-2524,-420,14816,-31,220,162
498443852,-2772,-416,14976,-122,219,182
498447409,-2684,-412,15148,-60,195,179
498450879,-2584,-520,15048,-31,339,128
498454349,-2608,-520,15084,-24,220,158
498457884,-2764,-504,15072,51,257,252
498461202,-2572,-336,14760,-117,301,98
498464672,-3056,-256,15064,87,92,351
498467968,-2368,-484,14396,-186,314,40
498471438,-2976,-500,15376,-5,89,259
498474735,-2420,-432,14620,-69,257,237
498478205,-2748,-432,15212,-82,236,123
498481699,-2592,-480,14868,76,178,331
498485058,-2480,-416,14908,-90,336,104
498488528,-2964,-424,15092,32,116,267
498491911,-2480,-596,14868,4,287,161
498495208,-2912,-340,14796,-69,154,171
498498678,-2632,-536,14904,-53,289,215
498502148,-2848,-404,14956,-83,220,204
498505618,-2660,-520,15108,35,226,227
498509026,-2736,-320,14876,-86,278,214
498512471,-2748,-384,14936,-118,213,98
498515941,-2692,-424,14992,-13,248,233
498519411,-2824,-348,14632,-26,144,241
498522881,-2480,-636,14896,11,314,161
498526264,-2612,-500,14872,49,213,236
498529648,-2812,-376,14856,-97,308,58
498533055,-2964,-352,15220,103,146,380
498536501,-2336,-380,14604,-301,366,-130
498540144,-3004,-388,15184,104,48,470
498543528,-2076,-496,14404,-166,334,-12
498547084,-3244,-372,15564,82,57,393
498550381,-2148,-540,14656,-110,315,139
498553938,-3076,-340,15240,47,113,288
498557384,-2104,-608,14580,56,305,179
498560739,-3160,-380,15324,-56,251,145
498564174,-2064,-600,14420,33,183,243
498567557,-2796,-320,15092,-298,454,-158
498571201,-2400,-532,14848,62,62,349
498574497,-2652,-372,14784,-195,401,21
498577967,-2900,-480,15236,26,95,305
498581267,-2412,-460,14784,-124,355,104
498584845,-2964,-492,15352,5,185,269
498588117,-2464,-432,14732,-14,227,139
498591587,-2760,-404,15052,-26,267,207
498595057,-2584,-444,14888,-37,210,169
498598527,-2716,-440,14944,-21,288,215
498601997,-2580,-468,14884,-125,172,179
498605554,-2608,-608,14976,-53,247,202
498609048,-2804,-408,14980,-57,221,212
498612494,-2520,-512,14940,-53,212,155
498615964,-2688,-380,14932,-50,276,201
498619434,-2788,-472,14948,44,172,226
498622817,-2636,-588,14932,0,282,131
498626114,-2936,-360,15020,-15,222,190
498629584,-2536,-444,14884,45,196,224
498632991,-2596,-472,14904,-149,362,86
498636437,-2992,-420,15196,5,132,274
498639733,-2408,-496,14960,-47,278,171
498643203,-2916,-444,15052,-103,216,136
498646760,-2696,-492,15040,-19,175,214
498650230,-2692,-460,14936,-153,328,91
498653700,-2852,-468,14932,40,102,267
498657130,-2484,-408,14720,-45,341,173
498660557,-2824,-432,14936,56,210,168
498663972,-2448,-584,14872,-25,300,137
498667407,-2960,-304,15080,31,139,295
498670790,-2300,-520,14652,-134,311,15
498674260,-3040,-596,15464,-6,170,318
498677643,-2196,-516,14532,-225,305,-56
498681203,-3112,-280,15496,-2,220,266
498684608,-2320,-488,14520,-146,386,40
498688053,-3296,-408,15316,54,136,286
498691436,-2236,-552,14516,146,174,305
498694906,-3424,-348,15708,-108,250,76
498698376,-2536,-592,14856,157,76,482
498701760,-2432,-472,14748,-185,299,27
498705230,-2868,-524,14968,5,170,283
498708551,-2424,-476,14760,-197,371,51
498711996,-2844,-448,15120,11,150,208
498715379,-2492,-496,14732,-102,300,199
498718936,-2936,-520,15236,-25,114,203
498722406,-2488,-428,14628,35,279,237
498725789,-2960,-412,15336,-2,240,183
498729173,-2316,-600,14596,95,158,291
498732580,-3020,-432,15244,-1,255,215
498735939,-2228,-612,14532,-17,133,267
498739409,-2820,-392,15132,-111,344,76
498742879,-2592,-448,14984,-13,189,272
498746349,-2756,-540,14928,-84,286,86
498749732,-2724,-468,15088,-47,263,242
498753202,-2484,-544,14908,-51,233,118
498756720,-2708,-380,15120,39,244,282
498760056,-2720,-396,14912,20,174,177
498763439,-2568,-420,14836,-10,255,140
498766944,-2756,-428,14852,-75,196,208
498770379,-2648,-376,14760,-24,250,199
498773849,-2844,-560,15204,-10,269,216
498777319,-2656,-448,14888,-51,152,190
498780789,-2792,-468,15168,-60,233,175
498784283,-2748,-384,14936,-53,221,206
498787729,-2616,-396,14908,-20,204,158
498791199,-2852,-496,15028,-5,290,190
498794582,-2572,-372,14668,-108,242,107
498798139,-3016,-428,15264,-20,320,124
498801609,-2328,-460,14564,-91,173,238
498805079,-2804,-344,15072,-112,321,81
498808573,-2580,-516,14980,30,212,265
498811932,-2568,-508,14724,-119,229,94
498815402,-2996,-436,15440,82,204,344
498818785,-2240,-580,14784,-97,237,77
498822169,-2844,-428,15136,-47,245,192
498825639,-2648,-524,14784,-40,267,135
498829109,-2700,-448,15020,50,203,243
498832516,-2816,-472,14996,-43,325,149
498835962,-2684,-448,14876,-11,157,224
498839432,-2680,-468,14836,-41,280,177
498842902,-2636,-464,15112,-22,99,232
498846285,-2504,-420,14812,-116,287,71
498849755,-2888,-316,14912,-45,167,271
498853225,-2464,-516,14956,-51,264,87
498856655,-2820,-448,15224,90,199,315
498859992,-2532,-528,14772,-59,244,84
498863375,-2968,-408,15024,52,206,287
498866762,-2348,-540,14664,-53,203,154
498870263,-2852,-408,14984,-128,212,151
498873785,-2500,-536,14888,67,163,354
498877168,-2484,-524,14776,-192,299,39
498880638,-2756,-476,15232,72,213,271
498884046,-2532,-316,14880,-121,214,142
498887578,-2592,-348,15028,73,163,276
498890961,-2604,-384,14736,-82,203,127
498894431,-2900,-432,15260,68,183,195
498897815,-2400,-364,14692,-37,274,190
498901285,-2804,-380,14984,-75,196,128
498904755,-2700,-340,14848,31,233,321
498908162,-2536,-596,14980,-161,314,62
498911608,-2816,-564,15128,89,34,392
498914904,-2360,-428,14676,-177,359,28
498918374,-3100,-420,15280,81,93,329
498921671,-2356,-584,14720,-72,347,126
498925141,-3080,-384,15220,45,161,297
498928524,-2372,-468,14752,49,261,140
498931932,-2928,-284,14924,-121,268,107
498935464,-2360,-512,14976,60,173,235
498938847,-2704,-412,14824,-184,389,33
498942317,-2768,-488,15112,77,58,351
498945614,-2332,-608,14728,-110,351,35
498949084,-3112,-476,15164,-43,172,323
498952554,-2220,-492,14696,-121,209,150
498956114,-3000,-388,15100,43,270,217
498959542,-2564,-524,14772,36,171,226
498962877,-2724,-448,15012,60,324,193
498966260,-2536,-416,14712,-6,220,155
498969644,-2592,-332,15084,-130,297,99
498973149,-2964,-412,15024,-54,222,262
498976584,-2700,-420,15056,-136,241,112
498980140,-2800,-584,15116,49,213,302
498983548,-2656,-496,14912,-116,240,88
498986994,-2860,-528,15116,9,187,231
498990290,-2484,-512,14840,-28,250,178
498993760,-2888,-380,15144,-12,289,97
498997143,-2652,-480,14992,26,260,213
499000527,-2860,-316,14764,-195,277,13
499003997,-2904,-592,15196,134,186,318
499007491,-2624,-476,14948,-164,252,82
499010937,-2804,-508,15116,41,159,270
499014320,-2744,-464,14924,-96,259,126
499017790,-2860,-480,15060,-31,162,239
499021260,-2656,-516,14964,-84,350,133
499024730,-2900,-340,15060,16,122,252
499028113,-2536,-464,14752,12,285,175
499031521,-2552,-432,14768,-55,222,130
499034966,-2984,-412,15096,-7,142,254
499038350,-2544,-428,14632,-68,272,193
499041820,-2912,-424,15088,-25,90,225
499045203,-2376,-592,14768,-50,282,201
499048673,-2916,-336,15124,-93,215,115
499052143,-2532,-548,14900,24,221,197
499055526,-2756,-492,14796,-70,211,209
499059097,-2700,-516,14940,-42,189,154
499062466,-2808,-452,15056,51,246,230
499065849,-2556,-396,14812,-102,223,157
499069406,-2932,-424,15108,12,350,101
499072793,-2528,-320,14700,-144,307,133
499076385,-3008,-504,15312,-142,307,35
499079816,-2796,-388,14992,42,174,362
499083224,-2892,-340,14968,-239,310,-49
499086756,-2736,-584,14976,88,163,318
499090139,-2824,-368,14984,-139,307,22
499093609,-2780,-600,15176,139,113,378
499097079,-2844,-328,15112,-23,387,101
499100549,-2684,-448,15016,30,69,300
499103846,-2436,-408,14816,-154,368,48
499107340,-2852,-524,15160,14,128,230
499110699,-2488,-396,14820,-110,295,104
499114256,-2808,-376,15060,-44,167,268
499117726,-2300,-456,14724,-190,249,15
499121196,-3028,-344,15328,9,213,307
499124492,-2356,-508,14872,49,125,255
499127876,-2744,-400,14928,5,321,134
499131176,-2564,-424,14760,76,97,298
499134493,-2604,-400,14904,-159,402,10
499137939,-2672,-424,14820,81,100,443
499141322,-2240,-576,14528,-268,382,-102
499144965,-3036,-456,15376,166,122,451
499148435,-2128,-444,14232,-142,197,129
499151992,-3300,-404,15496,3,204,233
499155289,-2372,-576,14768,16,111,329
499158719,-2732,-380,14844,-76,231,118
499162142,-2812,-436,14944,74,180,349
499165525,-2524,-592,14892,-76,285,28
499168908,-2752,-548,14956,99,145,357
499172292,-2272,-412,14356,-223,298,33
499175762,-3300,-352,15364,100,83,336
499179180,-2256,-548,14608,-77,279,167
499182639,-3024,-276,15088,-59,119,238
499186085,-2384,-428,14580,-7,266,208
499189468,-2768,-492,15088,-80,206,116
499192938,-2556,-492,14684,-20,268,141
499196408,-2724,-420,14924,2,172,252
499199705,-2816,-472,14988,-2,216,199
499203088,-2568,-540,14732,-86,303,142
499206582,-2940,-288,14900,-42,142,202
499210028,-2268,-580,14616,-36,268,248
499213498,-3160,-448,15088,-70,161,273
499216968,-2384,-564,14768,9,187,191
499220264,-2796,-384,14968,-195,298,74
499223734,-2616,-484,15072,54,115,280
499227118,-2760,-480,14984,-51,327,141
499230588,-2692,-496,14916,25,146,223
499233995,-2712,-300,14748,-39,306,144
499237441,-2596,-416,14924,-54,288,141
499240911,-2728,-328,14992,-17,188,226
499244381,-2540,-624,14940,-164,305,84
499247851,-2784,-448,14972,17,67,292
499251147,-2464,-548,14772,-118,366,68
499254617,-2880,-528,15252,20,87,320
499257961,-2368,-504,14896,-31,304,132
499261384,-2868,-384,15140,39,189,304
499264767,-2480,-432,14724,9,189,195
499268064,-2844,-476,14908,-84,311,146
499271534,-2548,-472,14764,-76,235,71
499274917,-2964,-372,15000,-106,316,131
499278474,-2688,-468,14944,-51,172,258
499281987,-2792,-496,15052,-126,270,61
499285414,-2736,-444,15176,47,226,269
499288797,-2524,-556,14804,-145,224,51
499292272,-2948,-396,15200,18,295,252
499295650,-2380,-512,14716,-47,235,115
499299120,-2988,-352,15368,-22,292,202
499302590,-2080,-596,14408,-61,288,151
499306064,-2952,-372,15276,-134,292,34
499309555,-2368,-528,14712,21,227,291
499312913,-2916,-372,15104,-136,274,39
499316383,-2760,-468,15012,108,131,351
499319853,-2728,-372,14884,-269,343,-67
499323410,-2880,-512,15204,78,60,354
499326707,-2676,-432,14964,-42,354,94
499330090,-2748,-460,15088,5,200,256
499333411,-2788,-392,14760,-40,321,94
499336770,-2656,-432,14840,-8,101,314
499340153,-2620,-400,14780,-91,383,-16
499343623,-3036,-496,15340,-11,172,321
499347093,-2328,-464,14456,28,72,332
499350389,-2720,-480,15076,-112,351,71
499353859,-2576,-528,14908,99,-1,437
499357204,-2440,-356,14676,-148,327,30
499360626,-2724,-356,14948,72,211,296
499364009,-2680,-612,14952,-114,311,38
499367479,-2516,-472,14800,168,154,366
499370949,-2432,-440,14524,-159,328,-12
499374506,-2888,-652,15396,74,138,296
499377889,-2384,-532,14468,-191,282,73
499381363,-3092,-484,15296,40,54,331
499384697,-2252,-584,14776,-140,353,91
499388126,-2980,-312,15248,19,78,280
499391422,-2424,-544,14764,35,221,242
499394805,-2888,-432,15000,-94,252,80
499398189,-2596,-512,14956,32,205,148
499401572,-3112,-320,15012,-101,257,204
499405129,-2436,-460,14904,-61,234,100
499408623,-2980,-472,15120,-51,255,228
499412069,-2396,-524,14692,-147,298,66
499415539,-2988,-392,15332,99,106,356
499418922,-2312,-524,14660,-95,211,163
499422392,-2932,-356,15180,16,123,293
499425775,-2388,-624,14852,-70,355,128
499429245,-2548,-472,14936,-96,243,83
499432653,-2992,-416,15168,100,179,310
499436098,-2332,-452,14648,-137,365,41
499439568,-2916,-388,15140,41,158,224
499442952,-2364,-476,14772,-89,287,153
499446422,-2940,-456,15264,38,69,286
499449718,-2352,-524,14704,-72,295,168
499453188,-2968,-440,15148,-46,171,242
499456707,-2536,-388,14656,-34,220,202
499460128,-2892,-460,15116,15,243,264
499463511,-2456,-572,14940,-7,199,136
499466895,-2912,-384,14852,-73,298,214
499470365,-2532,-456,14784,-18,224,163
499473835,-2728,-476,15012,-7,291,178
499477218,-2812,-488,15016,-112,290,129
499480775,-2676,-388,14936,-11,171,185
499484271,-2508,-432,14876,-102,268,202
499487836,-2756,-544,14996,-75,217,117
499491271,-2728,-408,15056,-20,200,213
499494741,-2672,-420,14800,-104,284,122
499498298,-2868,-496,14992,33,66,282
499501595,-2276,-476,14808,-27,342,149
499505065,-2972,-248,14980,-30,142,227
499508559,-2776,-348,15032,58,262,183
499511918,-2728,-392,14852,-67,235,251
499515388,-2560,-564,14900,-104,225,145
499518945,-2836,-320,15052,-42,195,257
499522415,-2552,-436,14776,-133,248,80
499525885,-2972,-432,15276,119,148,346
499529355,-2364,-532,14620,-128,302,40
499532849,-3072,-360,15224,135,64,336
499536208,-2332,-444,14396,-37,373,109
499539678,-2984,-328,15136,-110,239,64
499543148,-2368,-380,14784,9,255,237
499546444,-2880,-340,15176,-204,226,85
499549914,-2744,-440,15080,46,129,279
499553298,-2616,-404,14928,-234,340,-8
499556828,-2968,-400,15104,86,81,346
499560064,-2480,-468,14712,-99,358,63
499563447,-3044,-488,15236,-12,140,219
499566917,-2436,-464,14624,9,307,125
499570214,-2988,-412,15168,-32,142,189
499573684,-2400,-420,14660,9,284,169
499576980,-2816,-488,15032,-146,284,132
499580537,-2796,-456,15088,0,147,266
499583857,-2632,-480,14904,-42,293,171
499587304,-2500,-540,15004,73,65,327
499590635,-2752,-340,14808,-101,350,86
499594070,-2628,-588,15208,-33,210,187
499597540,-2800,-412,14948,-46,238,178
499601010,-2620,-388,14980,-46,290,138
499604480,-2852,-380,14956,-12,201,153
499607975,-2820,-420,15104,-54,387,71
499611333,-2524,-424,14680,1,33,368
499614543,-2668,-496,15168,-144,454,-39
499618100,-2544,-684,15064,90,56,409
499621396,-2456,-428,14600,-162,316,79
499624866,-2808,-408,15136,35,178,306
499628250,-2584,-464,14860,-73,226,136
499631744,-2676,-392,14976,46,256,259
499635103,-2624,-464,14872,-60,186,123
499638573,-2856,-384,14976,39,188,253
499641956,-2440,-508,14904,-91,280,137
499645426,-2692,-412,14816,-73,223,232
499648896,-2852,-352,15108,-55,301,163
499652366,-2476,-452,14784,27,68,314
499655663,-2568,-452,15020,-145,365,58
499659181,-2760,-556,15096,86,3,417
499662342,-2472,-348,14564,-74,405,17
499665726,-3040,-508,15384,128,154,407
499669196,-2196,-572,14548,-42,263,100
499672666,-3140,-316,14944,-11,256,258
499676136,-2444,-568,14760,-43,206,165
499679606,-2836,-336,14944,-64,180,211
499683099,-2860,-476,15048,-110,262,123
499686632,-2760,-424,14888,-68,176,234
499690102,-2732,-372,15000,-111,329,91
499693607,-2672,-388,15032,-27,142,221
499697042,-2608,-456,14904,-10,314,95
499700426,-2940,-392,15196,-21,183,214
499703896,-2384,-536,14928,7,249,128
499707217,-2844,-412,14976,-46,218,218
499710662,-2532,-408,14672,-185,264,10
499714132,-3052,-436,15464,62,268,251
499717515,-2340,-556,14680,-17,187,178
499720985,-2940,-456,15164,-106,251,171
499724542,-2584,-440,14924,-100,249,183
499728099,-2876,-348,14920,-121,209,163
499731680,-2608,-380,14696,83,259,264
499735039,-2724,-500,15072,-78,263,94
499738422,-2756,-460,14860,100,172,288
499741892,-2668,-540,14872,-156,375,-2
499745362,-2736,-384,14976,-41,127,231
499748832,-2796,-368,15008,-67,327,149
499752302,-2612,-548,15096,-50,153,219
499755772,-2684,-440,14932,-28,204,252
499759290,-2796,-424,15176,-73,233,131
499762712,-2572,-616,14944,-73,230,169
499766182,-2748,-396,15168,-3,251,215
499769565,-2524,-500,14800,-38,221,127
499773035,-2916,-412,15104,20,325,153
499776419,-2612,-492,14928,-15,185,195
499779889,-2596,-364,14604,-156,376,53
499783382,-3024,-388,15360,30,142,358
499786742,-2408,-492,14648,-101,267,133
499790299,-3048,-436,15112,3,226,270
499793634,-2408,-572,14832,-83,198,162
499797065,-2936,-336,15224,12,305,175
499800448,-2488,-584,15128,13,249,142
499803832,-2644,-400,14764,-47,255,166
499807326,-2776,-456,15024,0,244,267
499810598,-2448,-536,14904,-93,249,76
499813981,-3016,-396,14996,-39,259,221
499817451,-2608,-500,14864,-137,218,108
499821008,-2740,-476,15104,10,254,217
499824391,-2600,-368,14856,-170,327,96
499827861,-2932,-472,15140,61,188,256
499831248,-2540,-376,14648,-38,312,173
499834739,-2840,-440,15044,-35,233,128
499838185,-2796,-404,15072,84,204,255
499841568,-2488,-404,14696,-149,296,39
499845038,-3044,-340,15264,36,151,283
499848421,-2332,-636,14744,-183,370,49
499851891,-3044,-424,15332,20,190,241
499855274,-2352,-556,14768,-64,395,95
499858706,-2916,-508,15248,-96,159,183
499862128,-2536,-400,14936,-67,269,132
499865598,-2752,-472,15128,-34,181,211
499869068,-2672,-432,14916,16,253,212
499872451,-2908,-492,14980,23,226,240
499875834,-2432,-576,14892,-35,236,169
499879304,-3028,-304,15168,-33,226,299
499882797,-2256,-652,14844,-25,180,158
499886244,-2980,-436,15184,-39,207,242
499889714,-2348,-508,14688,-31,167,251
499893188,-2696,-424,14896,-53,199,131
499896689,-2456,-492,14684,-14,237,293
499900124,-2692,-328,14952,-60,181,145
499903594,-2432,-656,14936,75,240,236
499907002,-2804,-380,14948,-99,262,132
499910447,-2540,-484,14960,-4,193,189
499913831,-2968,-448,15052,-139,249,153
499917387,-2552,-512,14816,-40,162,183
499920857,-2896,-476,15028,-97,273,207
499924327,-2676,-428,15052,-116,197,138
499927884,-2688,-516,15176,-22,251,192
499931358,-2732,-452,14892,-23,294,173
499934849,-2784,-408,14944,17,145,248
499938207,-2668,-484,14872,-43,350,150
499941677,-2728,-352,14912,-41,167,180
499945147,-2584,-508,15136,-16,246,145
499948617,-2604,-472,14884,-138,268,131
499952174,-2880,-420,15256,-26,112,326
499955644,-2412,-352,14676,-4,295,159
499959077,-2824,-460,14948,-122,167,180
499962584,-2556,-504,14960,-33,250,168
499966054,-2804,-500,14992,12,232,250
499969437,-2532,-476,14968,26,191,199
499972821,-2720,-452,14764,-40,288,172
499976291,-2576,-536,14992,1,135,227
499979587,-2636,-468,14960,-108,344,91
499983080,-2620,-544,14972,-144,191,201
499986614,-2780,-320,14892,-44,241,169
499990084,-2464,-556,14780,-57,273,210
499993554,-2888,-492,15064,-51,271,52
499996972,-2676,-448,14880,3,274,237
500000234,-2896,-344,15116,-65,205,117
500003704,-2760,-504,14872,111,179,276
500007198,-2688,-552,15132,-30,270,165
500010644,-2584,-492,14728,-78,212,156
500014114,-2876,-288,15088,39,207,304
500017497,-2500,-564,14892,-99,221,90
500020880,-3064,-480,15268,29,115,313
500024263,-2448,-400,14860,-207,317,10
500027733,-3096,-424,15348,8,60,312
500030947,-2524,-492,14816,-65,346,161
500034438,-2656,-452,15032,-30,211,152
500037883,-2668,-476,15052,84,204,257
500041266,-2580,-512,14800,-114,283,35
500044736,-3028,-392,15156,56,83,331
500048033,-2400,-488,14708,-256,448,-91
500051590,-3284,-308,15440,51,93,324
500054886,-2216,-544,14624,-76,412,57
500058372,-2904,-496,15140,-76,115,222
500061739,-2668,-504,14844,-40,260,198
500065209,-2876,-524,15096,-63,243,138
500068679,-2640,-428,14940,-36,214,149
500072149,-2908,-468,15284,69,259,237
500075533,-2340,-504,14568,-16,192,173
500079003,-2968,-328,15184,28,163,260
500082409,-2360,-468,14736,-95,250,180
500085856,-2916,-268,15104,-120,137,227
500089413,-2712,-408,14944,13,177,287
500092796,-2328,-476,14756,-164,286,-13
500096353,-3048,-372,14956,56,166,382
500099775,-2296,-648,14688,-149,372,-30
500103293,-3048,-532,15208,157,88,390
500106700,-2380,-416,14500,-117,392,49
500110146,-2992,-384,15220,-33,145,232
500113616,-2368,-504,14772,-117,369,23
500117086,-3044,-428,15316,-94,188,160
500120556,-2660,-348,14924,19,181,220
500123939,-2744,-416,14788,-157,245,149
500127496,-2712,-560,15120,38,137,269
500130883,-2612,-420,14852,-101,317,121
500134460,-2800,-456,15180,-14,146,224
500137906,-2584,-496,14880,26,275,130
500141289,-2828,-476,15128,-20,211,253
500144759,-2472,-392,14580,-81,237,98
500148142,-2900,-332,15168,-117,341,88
500151612,-2644,-472,14908,-14,92,297
500154996,-2740,-552,15156,-131,374,76
500158514,-2800,-328,14868,-70,182,231
500161936,-2796,-404,14984,-67,211,161
500165406,-2616,-452,14904,-57,248,163
500168876,-2848,-484,15092,-8,165,164
500172259,-2600,-452,14952,21,300,196
500175642,-2824,-420,15100,75,151,238
500179025,-2484,-288,14640,-44,252,188
500182519,-2928,-384,14968,-120,228,188
500186052,-2500,-448,14928,3,197,187
500189349,-2756,-440,15048,-139,283,180
500192905,-2752,-404,14880,2,131,242
500196202,-2596,-508,14856,-68,361,115
500199675,-2776,-608,14984,31,211,232
500203090,-2592,-304,14644,-40,229,174
500206550,-2804,-492,15024,22,311,181
500209908,-2612,-392,14784,57,86,334
500213205,-2540,-436,14768,-100,389,38
500216675,-2744,-412,14832,-36,158,238
500220145,-2532,-344,14940,-119,345,50
500223615,-2920,-484,15252,70,153,342
500226998,-2360,-504,14628,-74,182,169
500230468,-2948,-456,15128,17,268,220
500233876,-2424,-392,14688,-76,215,132
500237321,-2936,-416,15148,29,136,303
500240705,-2584,-464,14768,-38,288,153
500244175,-2816,-464,14788,-13,244,117
500247645,-2836,-412,15036,1,274,212
500250941,-2824,-420,14988,-62,175,184
500254411,-2644,-516,15004,-61,259,168
500257929,-2944,-428,15132,-56,204,199
500261351,-2540,-560,14952,-27,215,149
500264821,-2720,-380,14864,-66,300,142
500268291,-2680,-412,15004,-30,146,187
500271761,-2828,-424,15024,38,293,216
500275144,-2684,-460,15148,-11,140,218
500278614,-2844,-448,14916,-68,280,100
500282108,-2648,-484,14856,-127,309,88
500285554,-2900,-292,14944,81,48,384
500288851,-2348,-412,14624,-116,385,84
500292321,-3104,-448,15260,3,80,306
500295531,-2388,-516,14756,-64,287,153
500299001,-2912,-424,15196,-97,207,125
500302471,-2520,-484,14848,64,166,217
500305892,-2796,-376,14932,-88,374,27
500309262,-2712,-488,15040,44,112,246
500312620,-2672,-316,14756,-97,334,139
500316090,-2708,-464,15012,-16,156,215
500319560,-2448,-580,14904,-59,278,145
500323030,-2868,-496,15176,-75,160,235
500326500,-2568,-560,14940,-97,223,140
500329970,-2776,-404,14996,-43,209,274
500333465,-2548,-464,15008,-68,204,124
500336910,-2780,-532,15048,45,255,224
500340294,-2532,-500,14828,-71,263,222
500343764,-2848,-484,15196,36,214,127
500347147,-2564,-496,14880,-110,346,103
500350704,-2748,-260,15068,-61,187,139
500354174,-2668,-404,15044,-24,250,201
500357692,-2748,-568,14904,-57,154,243
500361114,-2624,-524,14896,-98,220,161
500364584,-2940,-396,15084,13,214,244
500367967,-2244,-536,14656,-126,254,65
500371437,-3132,-300,15284,44,244,285
500374820,-2400,-448,14792,50,160,213
500378203,-2892,-400,15104,-52,341,73
500381610,-2716,-460,14960,0,122,305
500384883,-2672,-428,14980,-60,283,122
500388353,-2696,-496,15004,-38,259,282
500391823,-2668,-384,14868,-44,161,207
500395293,-2716,-344,14812,-86,332,99
500398676,-2748,-496,15012,26,128,261
500402060,-2668,-376,14872,-3,220,212
500405446,-2660,-500,14844,48,181,240
500408869,-2736,-516,14968,-33,185,186
500412296,-2772,-472,15024,-36,329,146
500415766,-2660,-480,14960,24,149,197
500419149,-2728,-508,14968,-94,330,116
500422619,-2768,-432,14984,-121,175,182
500426176,-2844,-360,14844,-41,179,232
500429646,-2468,-588,14852,-38,254,215
500433141,-2652,-436,14860,-113,175,161
500436673,-2796,-420,15068,42,306,199
500440056,-2352,-448,14720,-57,214,171
500443526,-2796,-452,15104,-32,281,139
500446996,-2652,-448,14864,-61,328,150
500450466,-2772,-432,15020,-103,198,138
500454023,-2408,-368,14576,-10,229,227
500457542,-3040,-324,15116,-128,216,127
500461050,-2420,-504,14604,-43,187,199
500464520,-2940,-360,15024,-133,310,114
500468076,-2540,-364,15016,14,124,237
500471460,-2668,-532,14852,-50,365,81
500474843,-2876,-608,15188,44,170,277
500478226,-2664,-432,14900,-33,267,143
500481721,-2808,-420,15004,12,270,251
500485079,-2752,-472,14888,-129,258,58
500488549,-2836,-484,15120,25,166,345
500491933,-2808,-260,14880,-159,247,68
500495403,-2672,-352,15088,53,178,298
500498786,-2660,-492,14868,-74,325,111
500502256,-2696,-508,14972,-18,145,228
500505726,-2596,-536,14972,29,357,159
500509151,-2696,-424,15020,-5,140,212
500512492,-2808,-348,14880,54,294,175
500515876,-2472,-672,14952,-118,274,94
500519346,-2884,-368,14984,-119,248,142
500522902,-2564,-408,14936,-23,315,183
500526372,-2744,-532,15096,-92,167,180
500529842,-2620,-408,14876,1,215,258
500533163,-2644,-416,14992,-79,210,127
500536609,-2892,-456,15132,19,181,219
500539992,-2384,-388,14732,4,245,204
500543289,-2736,-516,15048,-110,311,10
500546759,-3060,-416,15084,72,168,368
500550142,-2776,-228,14820,-184,337,-5
500553612,-2948,-476,15052,64,154,341
500557056,-2492,-396,14908,-248,332,-28
500560552,-3192,-440,15288,132,55,382
500563935,-2272,-476,14604,-107,327,102
500567492,-3040,-380,15280,54,60,320
500570788,-2316,-488,14648,-42,344,138
500574258,-2960,-428,15268,-80,226,85
500577642,-2624,-460,14860,52,203,246
500581028,-2916,-376,15080,-116,246,133
500584606,-2804,-412,14936,-2,166,248
500587965,-2684,-432,15020,-72,325,117
500591435,-2596,-572,14920,-78,186,170
500594905,-2812,-364,15096,-70,282,187
500598375,-2592,-440,15068,-61,158,165
500601845,-2860,-424,15248,-19,193,231
500605315,-2600,-608,14900,-22,213,216
500608812,-2776,-460,15060,20,198,172
500612203,-2680,-476,14932,-22,292,161
500615638,-2548,-492,14864,-8,176,210
500619021,-2664,-448,15000,-56,316,101
500622491,-2884,-396,15080,-57,200,302
500625961,-2572,-452,15132,-111,276,88
500629431,-2776,-432,14932,-36,255,235
500632926,-2748,-496,14932,-28,196,135
500636371,-2620,-496,15088,60,220,230
500639755,-2580,-352,14808,-123,287,110
500643311,-3016,-428,15292,19,116,257
500646695,-2512,-464,14896,-49,343,141
500650165,-2688,-308,14760,1,152,192
500653461,-2784,-508,15012,-24,249,221
500656980,-2224,-672,14812,-66,166,195
500660401,-3060,-412,15044,-30,104,303
500663871,-2400,-444,14796,-102,267,156
500667428,-3056,-360,15072,-51,134,213
500670898,-2596,-416,14956,2,282,206
500674194,-2688,-396,14952,-56,214,143
500677664,-2628,-424,14896,95,200,286
500681051,-2588,-412,14728,-79,251,89
500684455,-2832,-272,15068,-51,149,249
500687901,-2616,-348,14688,-103,286,122
500691458,-2860,-412,15152,-37,121,204
500694928,-2632,-404,14952,22,215,303
500698311,-2488,-424,14816,-119,255,122
500701868,-2696,-568,14972,34,156,236
500705251,-2520,-468,14820,-71,371,130
500708744,-2776,-428,14884,-34,212,120
500712229,-2864,-472,15208,64,257,237
500715574,-2528,-464,14656,-72,229,97
500718957,-2944,-412,15192,18,280,171
500722341,-2540,-468,14864,-75,246,211
500725811,-2796,-420,15024,-70,173,172
500729281,-2708,-368,14908,-63,260,218
500732775,-2820,-440,15080,-116,203,136
500736307,-2792,-424,14904,-17,170,226
500739777,-2852,-432,14884,-90,287,139
500743247,-2748,-468,14944,-22,193,158
500746717,-2784,-452,15000,2,337,154
500750014,-2680,-416,14976,100,95,328
500753397,-2724,-408,15128,-236,423,-47
500757002,-3160,-392,15256,100,44,420
500760337,-2432,-548,14732,-209,336,-7
500763807,-3172,-396,15288,14,162,328
500767190,-2200,-560,14496,-161,297,-10
500770747,-3028,-392,15312,47,238,242
500774130,-2412,-424,14648,-104,303,81
500777600,-3072,-432,15412,-20,295,63
500780987,-2604,-500,14876,69,218,327
500784391,-2740,-476,14988,-204,404,-136
500788010,-2952,-432,15084,57,167,344
500791394,-2900,-348,14940,-159,272,77
500794864,-2556,-516,15096,94,121,349
500798247,-2676,-384,14984,-158,286,113
500801804,-2708,-544,15088,0,160,262
500805100,-2744,-540,15036,-13,311,171
500808593,-2584,-404,14892,10,145,267
500811957,-2692,-440,14924,-5,305,89
500815285,-2852,-420,15152,49,126,293
500818633,-2616,-456,14580,13,277,156
500822016,-2752,-396,14932,-95,273,141
500825486,-2480,-424,14800,-68,91,312
500828870,-2676,-388,14888,-140,359,100
500832451,-2660,-476,15040,-46,96,239
500835810,-2732,-380,14984,-58,342,137
500839280,-2596,-576,14900,-18,188,200
500842750,-2668,-452,14864,-5,263,184
500846133,-2940,-352,15248,75,215,312
500849516,-2296,-568,14560,-4,283,86
500852813,-3220,-304,15240,91,156,340
500856199,-2328,-400,14608,-113,255,96
500859714,-2912,-484,15316,-105,280,195
500863223,-2504,-472,14732,-126,215,157
500866779,-2864,-548,15284,17,151,247
500870163,-2444,-416,14804,-85,264,198
500873633,-2816,-436,15260,-31,264,64
500877016,-2436,-544,14752,108,161,345
500880486,-2796,-424,14808,-124,316,28
500883980,-2508,-448,14960,85,90,336
500887252,-2460,-460,14704,-199,392,-48
500890814,-3032,-424,15320,41,108,259
500894192,-2556,-524,14980,-107,348,113
500897749,-2900,-468,15168,-3,149,300
500901132,-2616,-444,14840,-80,287,138
500904602,-2936,-356,15268,-100,191,236
500908182,-2480,-500,14648,-10,204,121
500911629,-2828,-388,15168,-92,275,187
500915103,-2464,-484,14684,58,140,223
500918517,-2440,-532,14752,-154,427,-18
500922039,-2936,-388,15016,-7,72,345
500925336,-2232,-620,14672,-95,383,-4
500928719,-3164,-472,15596,71,116,368
500932127,-2088,-580,14476,-59,210,175
500935572,-3060,-320,15376,-164,292,142
500939129,-2500,-336,14676,14,124,192
500942512,-2788,-392,15008,-100,377,101
500946069,-2840,-460,14976,7,196,216
500949365,-2436,-544,14884,29,236,198
500952749,-2940,-332,15040,-71,286,192
500956222,-2568,-460,14808,53,135,285
500959651,-2648,-516,14760,-140,334,102
500963159,-2768,-436,15088,27,88,288
500966455,-2352,-588,14820,-133,315,107
500970012,-2888,-492,15244,-32,201,224
500973482,-2592,-328,14712,-15,203,229
500976952,-2900,-568,15012,-14,316,167
500980422,-2684,-384,15040,120,117,295
500983916,-2568,-404,14624,26,282,176
500987275,-2748,-392,14944,-107,222,84
500990745,-2744,-376,14748,-35,201,202
500994215,-2536,-600,14740,-159,349,104
500997772,-2776,-404,14988,-19,72,294
501001155,-2404,-452,14772,-96,322,108
501004625,-3004,-432,15260,-19,153,260
501008118,-2584,-460,14860,81,197,243
501011478,-2708,-596,14952,-40,301,144
501014948,-2704,-264,14872,58,124,249
501018335,-2388,-512,14732,-3,323,141
501021750,-2760,-296,15148,-72,218,190
501025185,-2412,-372,14604,-86,250,136
501028655,-2888,-420,15176,-33,226,259
501032149,-2556,-500,14848,-31,159,216
501035595,-2872,-472,14992,-49,279,215
501039065,-2320,-640,15008,19,161,276
501042448,-2792,-308,14864,-45,281,85
501045831,-2628,-600,14960,87,104,356
501049215,-2424,-364,14556,-129,309,14
501052685,-2764,-372,15048,148,211,342
501056158,-2368,-436,14580,-188,307,-6
501059727,-2920,-284,15148,110,120,425
501063095,-2316,-604,14612,-97,247,82
501066478,-2924,-392,15092,-12,83,325
501069861,-2336,-492,14712,-70,291,147
501073331,-2908,-392,15064,-62,136,228
501076801,-2352,-484,14720,71,228,271
501080184,-2636,-356,14872,-147,278,71
501083679,-2720,-348,14800,134,87,336
501087038,-2540,-376,14808,-115,334,57
501090508,-2760,-468,15044,68,74,323
501093804,-2476,-432,14616,-212,421,6
501097187,-3104,-420,15296,-14,101,262
501100657,-2340,-504,14712,-111,326,110
501104214,-2980,-352,15204,-67,205,151
501107707,-2536,-432,14740,25,176,241
501111067,-2616,-412,14904,-148,351,36
501114537,-2804,-288,15048,175,26,392
501117921,-2420,-476,14740,-96,419,26
501121307,-3048,-440,15236,68,131,309
501124726,-2440,-428,14704,-55,261,124
501128157,-2820,-288,15004,-234,307,78
501131652,-2548,-316,14716,68,57,338
501134924,-2540,-448,14724,-226,421,17
501138394,-2868,-444,15004,63,69,337
501141690,-2512,-516,14784,-102,362,62
501145160,-3016,-464,15208,56,156,334
501148543,-2696,-404,14832,-77,310,36
501151927,-2736,-604,15188,96,128,376
501155310,-2304,-444,14620,-139,346,-58
501158915,-2924,-316,15060,13,208,361
501162250,-2216,-408,14808,-180,311,35
501165720,-3032,-432,15268,63,135,338
501169103,-2256,-580,14648,-144,401,38
501172573,-2980,-432,15228,49,107,264
501175956,-2404,-572,14728,-87,345,123
501179426,-2824,-376,14980,-21,174,196
501182921,-2748,-396,14976,89,269,242
501186280,-2484,-488,14736,-54,236,145
501189750,-2928,-456,15156,-30,255,149
501193220,-2412,-464,14532,-169,319,132
501196776,-3020,-440,15428,-83,212,121
501200246,-2500,-544,14788,8,228,271
501203543,-2768,-444,15184,-96,201,121
501207036,-2620,-424,14948,1,194,213
501210309,-2936,-584,15248,-61,261,106
501213779,-2432,-444,14684,3,156,257
501217076,-2956,-376,15100,12,260,226
501220459,-2192,-576,14552,25,175,187
501223842,-2912,-288,15024,-167,412,-1
501227347,-2404,-472,14680,-3,139,261
501230696,-2840,-344,15096,-117,306,133
501234277,-2596,-476,14960,-10,155,251
501237722,-2620,-428,14864,-115,304,82
501241192,-2744,-556,15112,49,261,246
501244576,-2520,-508,14760,-56,180,165
501248046,-2696,-536,14952,-33,300,138
501251516,-2840,-436,15072,27,133,289
501254899,-2328,-460,14776,-88,279,78
501258331,-3052,-320,15224,-59,239,202
501261752,-2400,-580,14832,-51,168,212
501265222,-2948,-512,15228,-83,304,144
501268692,-2608,-448,14940,-3,101,295
501272075,-2624,-384,14944,-76,272,140
501275545,-2764,-396,15048,-51,193,174
501279015,-2516,-460,14868,-48,217,125
501282510,-2848,-468,14996,51,254,284
501285869,-2512,-540,14844,-42,225,122
501289339,-2820,-484,15236,12,298,156
501292722,-2512,-380,14876,-70,190,185
501296192,-2724,-408,14976,-86,242,139
501299662,-2724,-444,15108,60,183,323
501303045,-2604,-628,14940,-218,296,0
501306452,-3016,-308,15208,132,115,433
501309898,-2256,-544,14564,-224,382,-62
501313455,-3124,-448,15240,42,168,282
501316838,-2460,-520,14820,26,332,141
501320222,-2584,-540,14972,33,134,264
501323605,-2572,-472,14704,-84,354,117
501327078,-2992,-436,15084,-82,148,187
501330580,-2320,-384,14636,-10,295,206
501334039,-3060,-420,15216,-55,144,263
501337485,-2324,-480,14836,-58,209,152
501340955,-3068,-336,15196,-25,191,273
501344425,-2328,-460,14784,-9,232,156
501347808,-3056,-464,15136,31,243,237
501351191,-2464,-540,14968,-16,214,170
501354661,-2796,-384,14856,6,194,204
501358006,-2676,-380,14736,-95,275,113
501361428,-2640,-384,14936,-76,234,195
501364898,-2828,-456,15088,28,235,252
501368281,-2528,-432,14904,-74,115,246
501371751,-2736,-420,14868,-50,259,147
501375221,-2724,-276,15004,16,109,318
501378604,-2532,-620,14952,-38,255,105
501382099,-2520,-424,14904,-11,278,202
501385544,-2868,-524,15020,0,124,214
501388841,-2404,-560,14692,4,300,176
501392137,-2716,-336,14832,-169,283,64
501395607,-2992,-332,15208,80,116,315
501398991,-2396,-508,14764,-109,302,119
501402547,-2900,-440,15312,9,115,270
501405847,-2652,-340,15048,-116,354,107
501409424,-2804,-504,15116,-27,121,202
501412871,-2496,-440,14852,0,248,179
501416167,-2696,-400,15024,-103,263,100
501419724,-2632,-580,14896,111,131,246
501423194,-2652,-316,14820,-107,376,103
501426751,-2540,-444,14876,20,105,282
501430137,-2856,-468,14872,-128,334,71
501433647,-2904,-444,15060,-2,143,279
501436987,-2424,-504,14824,-159,247,115
501440544,-2988,-416,15112,-10,225,242
501444014,-2584,-552,14756,-130,224,133
501447571,-2984,-348,15008,88,190,317
501450954,-2784,-380,15068,-50,310,51
501454337,-2676,-528,15212,180,72,492
501457769,-2424,-384,14580,-288,457,-133
501461364,-3216,-384,15516,92,-18,424
501464747,-2320,-568,14656,-170,437,16
501468217,-3124,-372,15292,-32,48,346
501471600,-2436,-368,14600,-66,332,69
501474984,-2936,-428,15104,-112,190,160
501478540,-2424,-632,14684,-30,212,131
501482035,-2976,-304,15048,-60,315,140
501485480,-2624,-556,15120,66,152,221
501488864,-2520,-332,14652,-103,352,107
501492420,-2960,-420,15380,79,110,323
501495804,-2216,-548,14612,-95,290,117
501499274,-3076,-408,15264,-53,228,280
501502744,-2400,-532,14684,-2,178,223
501506130,-2820,-308,14992,-104,296,178
501509708,-2500,-464,14836,-29,123,184
501513154,-2688,-532,15076,-50,329,138
501516624,-2420,-500,14904,6,200,228
501519920,-2828,-592,14984,0,287,143
501523217,-2744,-428,14912,30,202,289
501526600,-2580,-516,15056,-268,424,-171
501530243,-3264,-360,15276,133,99,452
501533668,-2220,-556,14532,-214,316,-34
501537183,-3284,-192,15260,111,13,473
501540567,-2332,-476,14652,-198,384,16
501544037,-3180,-532,15336,11,115,283
501547420,-2492,-492,14736,-81,399,29
501550803,-2920,-380,15096,17,109,258
501554186,-2480,-432,14820,-26,313,104
501557717,-2836,-460,15004,57,80,327
501560953,-2292,-616,14588,-115,376,-13
501564510,-3240,-268,15396,42,95,425
501567806,-2104,-540,14572,-52,213,142
501571276,-3164,-336,15216,-9,221,253
501574659,-2384,-568,14608,-29,185,192
501578129,-2924,-368,15056,-31,189,221
501581624,-2484,-448,14688,23,221,236
501584983,-2684,-420,14928,-21,246,136
501588453,-2756,-348,15012,41,243,290
501591836,-2596,-352,14760,-89,263,74
501595219,-2764,-552,15088,12,279,151
501598602,-2672,-428,14928,-94,172,204
501602072,-2840,-424,15084,-33,131,250
501605542,-2436,-528,14932,-61,281,197
501609037,-2928,-352,15204,-23,120,216
501612482,-2320,-424,14820,-42,303,203
501615952,-2872,-280,15040,-52,193,153
501619422,-2496,-580,14732,61,275,152
501622806,-2852,-420,15084,-108,245,127
501626362,-2528,-532,14824,-24,184,191
501629832,-2896,-432,15128,-97,314,129
501633329,-2552,-444,14748,-33,134,219
501636807,-2820,-476,15000,-88,332,91
501640156,-2368,-572,14976,-13,222,249
501643626,-2772,-460,14988,-113,254,97
501647096,-2748,-524,15212,30,242,265
501650479,-2576,-476,14760,-42,174,177
501653949,-2948,-376,15116,56,271,211
501657381,-2544,-552,14748,67,102,273
501660715,-2544,-376,14708,-184,413,-15
501664272,-2728,-320,14984,-45,228,284
501667742,-2476,-520,14928,-151,284,65
501671212,-2724,-540,14964,50,169,291
501674595,-2708,-416,14796,-165,240,92
501678065,-2556,-448,14856,49,120,308
501681473,-2560,-544,14992,-131,331,28
501684919,-2896,-576,15188,74,85,303
501688215,-2552,-488,14868,-60,351,88
501691598,-2936,-364,15196,41,122,279
501694982,-2476,-420,14728,-71,366,70
501698365,-3104,-412,15232,-58,147,273
501701835,-2360,-612,14676,-67,268,132
501705305,-3192,-444,15236,-79,275,194
501708799,-2400,-512,14676,-96,167,157
501712245,-2960,-424,15188,-81,324,155
501715715,-2556,-456,14864,-71,224,123
501719185,-2736,-344,14892,-33,267,185
501722655,-2908,-388,15072,83,209,233
501726038,-2316,-492,14664,-91,245,98
501729421,-2992,-292,15360,-8,300,149
501732828,-2340,-504,14680,-141,244,108
501736365,-3036,-596,15308,20,212,280
501739780,-2304,-400,14748,-155,307,80
501743215,-2920,-400,15308,-43,230,179
501746685,-2672,-584,15176,51,279,253
501750068,-2448,-544,14796,-33,199,121
501753538,-2816,-460,15100,-54,369,105
501757056,-2380,-636,14852,53,151,224
501760391,-2644,-288,14788,-150,385,6
501763774,-2980,-312,15124,26,195,340
501767158,-2772,-372,14916,-75,193,182
501770628,-2668,-504,14964,-10,304,186
501774098,-2736,-368,14936,-59,158,208
501777568,-2552,-520,15044,-49,279,177
501781041,-2828,-416,15112,-57,177,232
501784532,-2536,-372,14924,-13,256,163
501787978,-2828,-532,15176,-34,321,161
501791448,-2616,-532,15048,59,169,236
501794831,-2828,-552,15096,72,258,224
501798214,-2408,-380,14528,-114,239,183
501801771,-3140,-360,15416,-68,144,216
501805241,-2392,-480,14776,-4,243,237
501808649,-2676,-436,14988,-155,257,75
501812094,-2660,-424,15176,97,171,357
501815477,-2592,-456,14708,-111,273,65
501818947,-2948,-444,15208,120,132,314
501822417,-2432,-432,14784,-46,307,108
501825887,-2892,-412,15108,77,79,343
501829184,-2304,-576,14716,20,306,152
501832590,-2744,-380,14860,-189,229,115
501836124,-2644,-500,15248,-38,227,193
501839597,-2668,-420,15020,-72,257,202
501843099,-2764,-472,15192,-68,185,197
501846534,-2460,-432,14748,-65,347,96
501849917,-2840,-492,15200,-36,176,203
501853387,-2552,-428,14728,-30,195,222
501856905,-2928,-484,15152,-78,381,38
501860240,-2632,-340,14924,148,88,378
501863624,-2936,-348,14836,-126,423,-22
501867180,-2868,-520,15080,33,64,346
501870477,-2504,-464,14916,-84,329,127
501873947,-2808,-448,14992,-31,118,297
501877417,-2644,-524,14932,-70,197,152
501880890,-2512,-464,15012,-47,319,185
501884381,-2748,-500,14976,-53,169,178
501887827,-2768,-476,15056,27,349,91
501891123,-2760,-504,15236,60,83,324
501894420,-2540,-388,14596,-128,254,114
501897977,-2740,-408,14928,-63,303,140
501901447,-2840,-340,15132,-53,110,293
501904917,-2576,-592,14908,-62,343,137
501908411,-2896,-460,15156,-65,162,277
501911857,-2472,-428,14744,-54,276,117
501915327,-2840,-360,15108,-49,247,225
501918797,-2504,-516,14832,-11,188,168
501922267,-2684,-424,14976,2,350,179
501925563,-2592,-404,14876,54,175,244
501928946,-2552,-412,14720,-35,330,154
501932440,-2668,-432,14840,-69,224,146
501935886,-2920,-360,15088,-57,187,262
501939356,-2292,-548,14672,-153,391,55
501942830,-3048,-464,15488,-87,165,201
501946331,-2584,-592,14904,-3,263,164
501949680,-2740,-400,15000,-95,182,153
501953150,-2576,-408,14900,-22,177,197
501956669,-2776,-396,14852,-91,352,70
501960003,-2604,-552,15116,40,165,243
501963386,-2836,-480,14948,-49,249,230
501966856,-2720,-476,14916,3,134,244
501970153,-2588,-496,14944,-57,281,128
501973623,-2828,-300,15104,-54,171,230
501977093,-2504,-504,14864,-117,224,124
501980649,-2648,-448,15000,-16,179,316
501984144,-2624,-396,14892,-113,236,67
501987589,-2416,-564,14648,131,195,321
501991059,-2828,-408,14880,-94,288,137
501994529,-2260,-452,14628,203,82,374
501997913,-2492,-432,14864,-319,468,-169
502001556,-2720,-448,14864,121,-21,480
502005026,-2492,-552,14752,-119,372,26
502008521,-3008,-432,15148,13,62,348
502011793,-2308,-588,14656,-67,338,69
502015176,-2916,-436,15172,-21,202,259
502018646,-2632,-356,14888,-63,238,114
502022116,-2644,-444,14964,46,285,202
502025499,-2840,-464,14896,13,131,214
502028882,-2404,-600,14732,5,250,225
502032202,-2728,-412,14992,-152,361,31
502035649,-2780,-460,14824,16,131,313
502039032,-2556,-496,14876,-73,336,147
502042502,-2756,-412,15052,-35,104,242
502045976,-2464,-420,14728,-104,335,81
502049477,-2964,-416,15120,-7,111,314
502052825,-2380,-540,14744,-3,296,118
502056212,-2672,-468,15120,17,235,257
502059694,-2592,-460,14868,-4,238,132
502062975,-2812,-508,14892,35,256,257
502066358,-2724,-432,14712,-75,208,157
502069828,-2756,-404,14812,-96,300,174
502073298,-2916,-440,15096,-26,256,177
502076768,-2508,-404,14816,-108,172,254
502080325,-2880,-392,15036,-77,310,154
502083820,-2512,-516,14828,-8,175,219
502087178,-2868,-388,15048,28,204,260
502090562,-2524,-484,15000,17,130,255
502093945,-2580,-448,14868,-55,235,104
502097415,-2532,-516,14812,35,243,244
502100798,-2756,-292,14796,-119,236,125
502104355,-2772,-468,15316,74,209,294
502107763,-2492,-536,14760,-88,206,151
502111208,-2768,-316,15076,-26,200,234
502114678,-2596,-464,14824,-137,239,163
502118235,-2872,-448,15124,-34,136,203
502121705,-2564,-544,14724,-41,323,165
502125175,-2832,-464,15200,88,172,237
502128558,-2472,-428,14824,55,281,160
502131965,-2592,-456,14940,-110,357,85
502135411,-2788,-416,14796,16,64,348
502138708,-2584,-508,14812,-9,300,181
502142091,-2404,-564,14960,-142,189,151
502145648,-3028,-268,14984,-43,285,154
502149121,-2544,-552,14800,-69,230,157
502152627,-2804,-536,15192,-54,257,153
502156061,-2540,-428,14952,-32,300,201
502159576,-2612,-448,15116,25,215,154
502162911,-2520,-528,14852,75,253,258
502166294,-2600,-416,14856,-104,212,66
502169764,-2884,-356,15000,-36,158,245
502173234,-2380,-664,14972,2,156,329
502176531,-2724,-476,14924,-157,326,28
502180001,-2472,-492,14856,87,168,327
502183409,-2776,-312,14948,-159,275,56
502186854,-2704,-536,15048,42,211,217
502190237,-2872,-412,15136,-79,274,149
502193707,-2516,-532,14852,-47,214,114
502197177,-2632,-352,14836,-29,281,182
502200647,-2648,-544,15072,-56,264,128
502204117,-2596,-436,14804,25,175,316
502207525,-2576,-428,14800,-122,290,95
502210971,-2780,-384,15116,18,99,319
502214267,-2344,-548,14904,-121,378,84
502217737,-3000,-368,15124,8,121,260
502221034,-2388,-560,14688,-16,318,179
502224504,-2808,-484,15120,-42,224,83
502227887,-2656,-436,14864,75,208,263
502231293,-2472,-544,14872,-40,229,130
502234740,-2848,-388,14944,29,163,233
502238123,-2256,-508,14532,-85,283,200
502241593,-2936,-608,15444,-1,100,240
502244977,-2268,-452,14752,-78,210,268
502248447,-2844,-416,15048,-164,271,-6
502251917,-2596,-416,14936,118,90,382
502255335,-2480,-452,14952,-152,398,-35
502258905,-2644,-584,15144,126,21,375
502262240,-2324,-472,14632,-73,400,55
502265623,-3136,-408,15508,35,111,268
502269006,-2268,-448,14648,-23,324,128
502272476,-2832,-364,15032,-88,212,246
502275946,-2516,-360,14920,110,152,288
502279416,-2600,-496,14964,-146,400,76
502282911,-2776,-532,14984,69,37,395
502286183,-2352,-440,14692,-149,401,32
502289653,-2960,-500,15176,-5,86,318
502292949,-2476,-544,14808,52,313,163
502296333,-2880,-516,15108,-40,228,123
502299803,-2372,-536,14672,-49,227,162
502303273,-3012,-548,15188,-141,314,78
502306767,-2480,-468,14704,-74,152,243
502310213,-2900,-384,15304,-49,315,171
502313683,-2256,-516,14760,-172,239,142
502317239,-3040,-380,15216,-30,211,207
502320709,-2564,-516,14980,-33,344,101
502324179,-2916,-352,15008,72,59,343
